#
# Results on Tuesday February 13 2018 19:49:24 UTC.
# USER AGENT: Mozilla/5.0 (Macintosh; Intel Mac OS X 10.11; rv:52.0) Gecko/20100101 Firefox/52.0
# Design number was non-random = 0
#
# Columns below this comment are as follows:
# 1. Time results were received.
# 2. MD5 hash of participant's IP address.
# 3. Controller name.
# 4. Item number.
# 5. Element number.
# 6. Type.
# 7. Group.
# 8. Field name.
# 9. Field value.
1518551365,de7dee530905d01fd036b91c05784b93,Form,0,0,id,NULL,ID,id11
1518551365,de7dee530905d01fd036b91c05784b93,Form,0,0,id,NULL,_REACTION_TIME_,110411
# Columns below this comment are as follows:
# 1. Time results were received.
# 2. MD5 hash of participant's IP address.
# 3. Controller name.
# 4. Item number.
# 5. Element number.
# 6. Type.
# 7. Group.
# 8. Question.
# 9. Answer.
# 10. Time.
1518551365,de7dee530905d01fd036b91c05784b93,DynamicQuestion,2,0,practice,NULL,practice1,6,36839
1518551365,de7dee530905d01fd036b91c05784b93,DynamicQuestion,3,0,practice,NULL,practice2,0,28943
1518551365,de7dee530905d01fd036b91c05784b93,DynamicQuestion,83,0,test,7,7+1+TrF+SupportP+aware+If Ava is aware that Christopher smokes cigarettes and he smokes Marlboros then she will tell him about the recent class action suit+Christopher smokes cigarettes,0,12378
1518551365,de7dee530905d01fd036b91c05784b93,DynamicQuestion,502,0,test,4,42+1+Unacceptable+ExplicitIgnoranceP+happy+Keith is happy that Rebecca is staying in his apartment and he will not ask her to move+Keith will not ask Rebecca to move,1,23571
1518551365,de7dee530905d01fd036b91c05784b93,DynamicQuestion,515,0,test,4,43+1+Acceptable+SupportP+aware+Samuel is aware that Virginia has studied law and he will ask her for help with his case+Samuel will ask Virginia for help with his case,5,12932
1518551365,de7dee530905d01fd036b91c05784b93,DynamicQuestion,240,0,test,2,20+1+P+SupportP+continue+If Ashley continues watching sports then Joseph will invite her to watch next year’s World Series with him+Ashley has been watching sports,5,15880
1518551365,de7dee530905d01fd036b91c05784b93,DynamicQuestion,450,0,test,3,38+1+Acceptable+ExplicitIgnoranceP+-+If Jonathan doesn't dance then Melissa will not invite him to perform at her show+Jonathan doesn't dance,5,14664
1518551365,de7dee530905d01fd036b91c05784b93,DynamicQuestion,292,0,test,2,24+1+TrL+SupportP+continue+If Sarah has been adopting cats and she continues adopting pets then Nicholas will suggest she move out+Sarah has been adopting pets,5,25913
1518551365,de7dee530905d01fd036b91c05784b93,DynamicQuestion,148,0,test,1,12+1+TrL+SupportP+aware+If Tyler likes dogs and Alyssa is aware that he likes animals then she will ask him if he knows anyone that could walk her dog +Tyler likes animals,2,15460
1518551365,de7dee530905d01fd036b91c05784b93,DynamicQuestion,358,0,test,3,30+1+Acceptable+ExplicitIgnoranceP+-+If Olivia never went to the gym then Ethan will ask her to train with him+Olivia never went to the gym,4,13809
1518551365,de7dee530905d01fd036b91c05784b93,DynamicQuestion,528,0,test,4,44+1+Unacceptable+ExplicitIgnoranceP+aware+Willie is aware that Kathleen works as a journalist and he will offer her a job in his newspaper+Willie will offer Kathleen a job in his newspaper,0,9861
1518551365,de7dee530905d01fd036b91c05784b93,DynamicQuestion,371,0,test,3,31+1+Unacceptable+SupportP+-+If Grace hasn't been hosting parties then David will go live somewhere else+Grace hasn't been hosting parties,1,13436
1518551365,de7dee530905d01fd036b91c05784b93,DynamicQuestion,489,0,test,4,41+1+Acceptable+SupportP+happy+Gerald is happy that Anna is pregnant and he will buy her a present+Gerald will buy Anna a present,6,11009
1518551365,de7dee530905d01fd036b91c05784b93,DynamicQuestion,410,0,test,3,34+1+Acceptable+ExplicitIgnoranceP+-+If Joseph doesn't smoke then Jessica will refrain from smoking when he is around+Joseph doesn't smoke,6,10957
1518551365,de7dee530905d01fd036b91c05784b93,DynamicQuestion,57,0,test,5,5+1+P+SupportP+happy+If Hannah is happy that Daniel sells flowers then she will go check out his store+Daniel sells flowers,4,18712
1518551365,de7dee530905d01fd036b91c05784b93,DynamicQuestion,567,0,test,4,47+1+Acceptable+SupportP+continue+Roy still works in Buenos Aires so Debra will try to meet him on her next trip there+Debra will try to meet Roy on her next trip there,6,14313
1518551365,de7dee530905d01fd036b91c05784b93,DynamicQuestion,633,0,test,5,53+1+Acceptable+SupportP+stop+She has stopped eating bread so she's been trying out different alternatives.+Janet likes cheese,5,18151
1518551365,de7dee530905d01fd036b91c05784b93,DynamicQuestion,463,0,test,3,39+1+Unacceptable+SupportP+-+If Justin doesn't collect coins then Brenda will not bring him coins from her trip to Asia+Justin doesn't collect coins,0,14992
1518551365,de7dee530905d01fd036b91c05784b93,DynamicQuestion,306,0,test,2,26+1+Acceptable+ExplicitIgnoranceP+-+If Andrew doesn't play a sport then Isabella will invite him to train with her+Andrew doesn't play a sport,5,9637
1518551365,de7dee530905d01fd036b91c05784b93,DynamicQuestion,476,0,test,4,40+1+Acceptable+ExplicitIgnoranceP+-+If Terry doesn't work in a restaurant then Amy will not ask him to cook for her party +Terry doesn't work in a restaurant,4,14520
1518551365,de7dee530905d01fd036b91c05784b93,DynamicQuestion,594,0,test,5,50+1+Unacceptable+ExplicitIgnoranceP+happy+Brandon is happy that Carolyn has friends in Amsterdam and is planning to pay them a visit when he is there next month.+Carolyn has friends in Amsterdam,0,12842
1518551365,de7dee530905d01fd036b91c05784b93,DynamicQuestion,397,0,test,3,33+1+Unacceptable+SupportP+-+If Roger never has worked in the military then Deborah will ask somebody else to give a talk at her group +Roger never has worked in the military,1,14689
1518551365,de7dee530905d01fd036b91c05784b93,DynamicQuestion,580,0,test,4,48+1+Unacceptable+ExplicitIgnoranceP+continue+Benjamin still works for United so Amanda will interview him for her school newspaper+Amanda will interview Benjamin for her school newspaper,0,14046
1518551365,de7dee530905d01fd036b91c05784b93,DynamicQuestion,175,0,test,1,15+1+TrL+SupportP+stop+If Abigail used to practice Jivamukti yoga and she has stopped doing yoga then Matthew will interview her for his story+Abigail used to do  yoga,5,31923
1518551365,de7dee530905d01fd036b91c05784b93,DynamicQuestion,436,0,test,3,36+1+Acceptable+ExplicitIgnoranceP+-+If Jack never visits Asia then Cynthia will invite him to travel somewhere else with her+Jack never visits Asia,6,13575
1518551365,de7dee530905d01fd036b91c05784b93,DynamicQuestion,293,0,test,2,25+1+Unacceptable+SupportP+-+If Ethan isn't coming to England then Olivia will invite somebody else for dinner +Ethan isn't coming to England,1,10278
1518551365,de7dee530905d01fd036b91c05784b93,DynamicQuestion,5,0,test,1,1+1+TrF+SupportP+happy+If Emily is happy that Jacob is in France and he is in Paris then she will call him soon+Jacob is in France,5,15475
1518551365,de7dee530905d01fd036b91c05784b93,DynamicQuestion,384,0,test,3,32+1+Acceptable+ExplicitIgnoranceP+-+If Alyssa hasn't worked in academia then Tyler will nominate somebody else for the research committee+Alyssa hasn't worked in academia,6,15510
1518551365,de7dee530905d01fd036b91c05784b93,DynamicQuestion,646,0,test,5,54+1+Unacceptable+ExplicitIgnoranceP+stop+Catherine has stopped serving on the facilities committee so she has a little bit more free time now.+Catherine is not crucial for the current project,1,20108
1518551365,de7dee530905d01fd036b91c05784b93,DynamicQuestion,18,0,test,2,2+1+P+SupportP+happy+If Emma is happy that Michael lives in Japan then she will go visit him+Michael lives in Japan,6,9186
1518551365,de7dee530905d01fd036b91c05784b93,DynamicQuestion,541,0,test,4,45+1+Acceptable+SupportP+stop+Ralph has stopped working at night so Pamela will invite him out for dinner+Pamela will invite Ralph out for dinner,6,12280
1518551365,de7dee530905d01fd036b91c05784b93,DynamicQuestion,554,0,test,4,46+1+Unacceptable+ExplicitIgnoranceP+stop+Lawrence has stopped running in the morning so Martha will convince him to go to the gym with her in the evening+Martha will convince Lawrence to go to the gym with her in the evening,0,9389
1518551365,de7dee530905d01fd036b91c05784b93,DynamicQuestion,266,0,test,2,22+1+TrF+SupportP+continue+If Elizabeth continues eating meat and she has been eating red meat then Alexander will not want to go out to eat with her+Elizabeth has been eating meat,5,15915
1518551365,de7dee530905d01fd036b91c05784b93,DynamicQuestion,201,0,test,1,17+1+P+SupportP+stop+If Hannah has stopped skipping classes then Daniel will not report her to the principal+Hannah used to skip classes,6,8601
1518551365,de7dee530905d01fd036b91c05784b93,DynamicQuestion,332,0,test,2,28+1+Acceptable+ExplicitIgnoranceP+-+If Nicholas doesn't eat meat then Sarah will share her lunch with him+Nicholas doesn't eat meat,5,13281
1518551365,de7dee530905d01fd036b91c05784b93,DynamicQuestion,227,0,test,1,19+1+TrF+SupportP+continue+If Ava continues visiting museums and she has been frequenting science museums then Christopher will have a lot to talk to her about+Ava has been visiting museums,6,16444
1518551365,de7dee530905d01fd036b91c05784b93,DynamicQuestion,279,0,test,2,23+1+P+SupportP+continue+If Alexis continues failing exams then Ryan will suggest that she work with the counselling center+Alexis has been failing exams,6,14238
1518551365,de7dee530905d01fd036b91c05784b93,DynamicQuestion,437,0,test,3,37+1+Unacceptable+SupportP+-+If Albert doesn't export alcohol to the Middle East then Angela will not ask him to sell the wine from her vineyard+Albert doesn't export alcohol to the Middle East,1,20503
1518551365,de7dee530905d01fd036b91c05784b93,DynamicQuestion,188,0,test,1,16+1+TrF+SupportP+stop+If Isabella has stopped drinking coffee and she used to drink a lot of coffee then Andrew will suggest that she order tea+Isabella used to drink coffee,3,24913
1518551365,de7dee530905d01fd036b91c05784b93,DynamicQuestion,44,0,test,4,4+1+TrF+SupportP+happy+If Abigail is happy that Matthew travelled to Germany and he travelled to Berlin then she will ask him to write a post on her blog+Matthew travelled to Germany,5,12641
1518551365,de7dee530905d01fd036b91c05784b93,DynamicQuestion,672,0,test,5,56+1+Unacceptable+ExplicitIgnoranceP+continue+She still doesn't have a cell phone so Bill can only call her when she's at home or in the office.+Ann does not have a mobile phone,6,12146
1518551365,de7dee530905d01fd036b91c05784b93,DynamicQuestion,319,0,test,2,27+1+Unacceptable+SupportP+-+If Alexander doesn't drink soda then Elizabeth will buy some beer at the grocery store+Alexander doesn't drink soda,1,13012
1518551365,de7dee530905d01fd036b91c05784b93,DynamicQuestion,96,0,test,8,8+1+P+SupportP+aware+If Ashley is aware that Joseph likes music then she will give him a biography of Beethoven+Joseph likes music,6,11548
1518551365,de7dee530905d01fd036b91c05784b93,DynamicQuestion,149,0,test,1,13+1+TrF+SupportP+stop+If Emily has stopped playing with toys and she used to play with toy cars then Jacob will buy her racing video games for her birthday+Emily used to play with toys,5,17726
1518551365,de7dee530905d01fd036b91c05784b93,DynamicQuestion,253,0,test,2,21+1+TrL+SupportP+continue+If Sophia has been eating at expensive restaurants and she continues going out to eat then William will get her a Wine and Dine magazine subscription+Sophia has been going out to eat,5,17669
1518551365,de7dee530905d01fd036b91c05784b93,DynamicQuestion,31,0,test,3,3+1+TrL+SupportP+happy+If Joshua plays the piano and Madison is happy that he plays an instrument then she will invite him to the party+Joshua plays an instrument,4,23509
1518551365,de7dee530905d01fd036b91c05784b93,DynamicQuestion,109,0,test,9,9+1+TrL+SupportP+aware+If William likes violins and Sophia is aware that he likes musical instruments then she will ask him to visit the musem of musical instruments with her+William likes musical instruments,6,15296
1518551365,de7dee530905d01fd036b91c05784b93,DynamicQuestion,135,0,test,1,11+1+P+SupportP+aware+If Grace is aware that David likes to eat out then she will take him for Mexican+David likes to eat out,6,8437
1518551365,de7dee530905d01fd036b91c05784b93,DynamicQuestion,423,0,test,3,35+1+Unacceptable+SupportP+-+If Shirley doesn't play basketball then Juan will not ask her to teach basketball to disadvantaged kids in the summer+Shirley doesn't play basketball,1,17903
1518551365,de7dee530905d01fd036b91c05784b93,DynamicQuestion,581,0,test,4,49+1+Acceptable+SupportP+happy+Bruce is happy that Stephanie is fluent in Mandarin and he will ask her to help him host Chinese visitors.+Stephanie speaks an Asian language,6,7534
1518551365,de7dee530905d01fd036b91c05784b93,DynamicQuestion,70,0,test,6,6+1+TrL+SupportP+happy+If Anthony designs shirts and Samantha is happy that he designs clothes then she will ask him to work for her+Anthony designs clothes,5,12011
1518551365,de7dee530905d01fd036b91c05784b93,DynamicQuestion,162,0,test,1,14+1+P+SupportP+stop+If Emma has stopped reading novels then Michael will take her to a sci-fi movie+Emma used to read novels,1,8760
1518551365,de7dee530905d01fd036b91c05784b93,DynamicQuestion,620,0,test,5,52+1+Unacceptable+ExplicitIgnoranceP+aware+Harry is aware that she has a German passport and he thinks that she should go to college there.+Marie is a German citizen,4,15115
1518551365,de7dee530905d01fd036b91c05784b93,DynamicQuestion,122,0,test,1,10+1+TrF+SupportP+aware+If Alexis is aware that Ryan drives and he drives a Toyota then she will get a ride from him+Ryan drives,5,14913
1518551365,de7dee530905d01fd036b91c05784b93,DynamicQuestion,607,0,test,5,51+1+Acceptable+SupportP+aware+Adam is aware that she was offered a job in Paris and he thinks that it would be a great career step for her.+Christine was offered a job in France,6,9163
1518551365,de7dee530905d01fd036b91c05784b93,DynamicQuestion,659,0,test,5,55+1+Acceptable+SupportP+continue+She continues to enjoy playing hockey and might even try out for the varsity team next year.+Frances likes football,6,13271
1518551365,de7dee530905d01fd036b91c05784b93,DynamicQuestion,214,0,test,1,18+1+TrL+SupportP+stop+If Samantha used to go to Rome and she has stopped travelling to Italy then Anthony will offer to take her on his next trip to Spain+Samantha used to travel to Italy,0,10829
1518551365,de7dee530905d01fd036b91c05784b93,DynamicQuestion,345,0,test,2,29+1+Unacceptable+SupportP+-+If Madison never drank then Joshua will invite her to his group+Madison never drank,0,8378
#
# Results on Wednesday February 14 2018 19:50:07 UTC.
# USER AGENT: Mozilla/5.0 (Macintosh; Intel Mac OS X 10.11; rv:52.0) Gecko/20100101 Firefox/52.0
# Design number was non-random = 1
#
# Columns below this comment are as follows:
# 1. Time results were received.
# 2. MD5 hash of participant's IP address.
# 3. Controller name.
# 4. Item number.
# 5. Element number.
# 6. Type.
# 7. Group.
# 8. Field name.
# 9. Field value.
1518637808,de7dee530905d01fd036b91c05784b93,Form,0,0,id,NULL,ID,id22
1518637808,de7dee530905d01fd036b91c05784b93,Form,0,0,id,NULL,_REACTION_TIME_,7487
# Columns below this comment are as follows:
# 1. Time results were received.
# 2. MD5 hash of participant's IP address.
# 3. Controller name.
# 4. Item number.
# 5. Element number.
# 6. Type.
# 7. Group.
# 8. Question.
# 9. Answer.
# 10. Time.
1518637808,de7dee530905d01fd036b91c05784b93,DynamicQuestion,2,0,practice,NULL,practice1,6,31582
1518637808,de7dee530905d01fd036b91c05784b93,DynamicQuestion,3,0,practice,NULL,practice2,0,17992
1518637808,de7dee530905d01fd036b91c05784b93,DynamicQuestion,516,0,test,4,43+2+Acceptable+SupportP+aware+Samuel is aware that Virginia has studied law and he will ask her for help with his case+Samuel will ask Virginia for help with his case,4,25745
1518637808,de7dee530905d01fd036b91c05784b93,DynamicQuestion,228,0,test,1,19+2+TrL+SupportP+continue+If Ava has been frequenting science museums and she continues visiting museums then Christopher will have a lot to talk to her about+Ava has been visiting museums,2,20211
1518637808,de7dee530905d01fd036b91c05784b93,DynamicQuestion,647,0,test,5,54+2+Unacceptable+ExplicitIgnoranceP+stop+Catherine has stopped serving on the facilities committee so she has a little bit more free time now.+Catherine is in Europe,0,13011
1518637808,de7dee530905d01fd036b91c05784b93,DynamicQuestion,451,0,test,3,38+2+Acceptable+ExplicitIgnoranceP+-+If Jonathan doesn't dance then Melissa will not invite him to perform at her show+Jonathan doesn't dance,4,22606
1518637808,de7dee530905d01fd036b91c05784b93,DynamicQuestion,673,0,test,5,56+2+Unacceptable+ExplicitIgnoranceP+continue+She still doesn't have a cell phone so Bill can only call her when she's at home or in the office.+Ann does not have a mobile phone,0,22042
1518637808,de7dee530905d01fd036b91c05784b93,DynamicQuestion,398,0,test,3,33+2+Unacceptable+SupportP+-+If Roger never has worked in the military then Deborah will ask somebody else to give a talk at her group +Roger never has worked in the military,0,23540
1518637808,de7dee530905d01fd036b91c05784b93,DynamicQuestion,58,0,test,5,5+2+TrF+SupportP+happy+If Hannah is happy that Daniel sells flowers and he sells roses then she will go check out his store+Daniel sells flowers,2,23258
1518637808,de7dee530905d01fd036b91c05784b93,DynamicQuestion,582,0,test,4,49+2+Acceptable+SupportP+happy+Bruce is happy that Stephanie is fluent in Mandarin and he will ask her to help him host Chinese visitors.+Stephanie is fluent in Mandarin Chinese,6,13810
1518637808,de7dee530905d01fd036b91c05784b93,DynamicQuestion,569,0,test,4,48+2+Unacceptable+ExplicitIgnoranceP+continue+Benjamin still works for United so Amanda will interview him for her school newspaper+Amanda will interview Benjamin for her school newspaper,1,20862
1518637808,de7dee530905d01fd036b91c05784b93,DynamicQuestion,45,0,test,4,4+2+TrL+SupportP+happy+If Matthew travelled to Berlin and Abigail is happy that he travelled to Germany then she will ask him to write a post on her blog+Matthew travelled to Germany,5,25453
1518637808,de7dee530905d01fd036b91c05784b93,DynamicQuestion,372,0,test,3,31+2+Unacceptable+SupportP+-+If Grace hasn't been hosting parties then David will go live somewhere else+Grace hasn't been hosting parties,2,18577
1518637808,de7dee530905d01fd036b91c05784b93,DynamicQuestion,254,0,test,2,21+2+P+SupportP+continue+If Sophia continues going out to eat then William will get her a Wine and Dine magazine subscription+Sophia has been going out to eat,1,16610
1518637808,de7dee530905d01fd036b91c05784b93,DynamicQuestion,281,0,test,2,24+2+P+SupportP+continue+If Sarah continues adopting pets then Nicholas will suggest she move out+Sarah has been adopting pets,6,19671
1518637808,de7dee530905d01fd036b91c05784b93,DynamicQuestion,346,0,test,2,29+2+Unacceptable+SupportP+-+If Madison never drank then Joshua will invite her to his group+Madison never drank,0,15192
1518637808,de7dee530905d01fd036b91c05784b93,DynamicQuestion,555,0,test,4,46+2+Unacceptable+ExplicitIgnoranceP+stop+Lawrence has stopped running in the morning so Martha will convince him to go to the gym with her in the evening+Martha will convince Lawrence to go to the gym with her in the evening,1,14468
1518637808,de7dee530905d01fd036b91c05784b93,DynamicQuestion,320,0,test,2,27+2+Unacceptable+SupportP+-+If Alexander doesn't drink soda then Elizabeth will buy some beer at the grocery store+Alexander doesn't drink soda,1,32730
1518637808,de7dee530905d01fd036b91c05784b93,DynamicQuestion,634,0,test,5,53+2+Acceptable+SupportP+stop+She has stopped eating bread so she's been trying out different alternatives.+Janet is allergic to gluten,6,12539
1518637808,de7dee530905d01fd036b91c05784b93,DynamicQuestion,608,0,test,5,51+2+Acceptable+SupportP+aware+Adam is aware that she was offered a job in Paris and he thinks that it would be a great career step for her.+Christine was offered a job in France,6,11391
1518637808,de7dee530905d01fd036b91c05784b93,DynamicQuestion,595,0,test,5,50+2+Unacceptable+ExplicitIgnoranceP+happy+Brandon is happy that Carolyn has friends in Amsterdam and is planning to pay them a visit when he is there next month.+Carolyn has contacts in Holland,1,15002
1518637808,de7dee530905d01fd036b91c05784b93,DynamicQuestion,123,0,test,1,10+2+TrL+SupportP+aware+If Ryan drives a Toyota and Alexis is aware that he drives then she will get a ride from him+Ryan drives,5,13901
1518637808,de7dee530905d01fd036b91c05784b93,DynamicQuestion,438,0,test,3,37+2+Unacceptable+SupportP+-+If Albert doesn't export alcohol to the Middle East then Angela will not ask him to sell the wine from her vineyard+Albert doesn't export alcohol to the Middle East,1,19200
1518637808,de7dee530905d01fd036b91c05784b93,DynamicQuestion,477,0,test,4,40+2+Acceptable+ExplicitIgnoranceP+-+If Terry doesn't work in a restaurant then Amy will not ask him to cook for her party +Terry doesn't work in a restaurant,6,18311
1518637808,de7dee530905d01fd036b91c05784b93,DynamicQuestion,307,0,test,2,26+2+Acceptable+ExplicitIgnoranceP+-+If Andrew doesn't play a sport then Isabella will invite him to train with her+Andrew doesn't play a sport,6,20717
1518637808,de7dee530905d01fd036b91c05784b93,DynamicQuestion,490,0,test,4,41+2+Acceptable+SupportP+happy+Gerald is happy that Anna is pregnant and he will buy her a present+Gerald will buy Anna a present,6,8579
1518637808,de7dee530905d01fd036b91c05784b93,DynamicQuestion,425,0,test,3,36+2+Acceptable+ExplicitIgnoranceP+-+If Jack never visits Asia then Cynthia will invite him to travel somewhere else with her+Jack never visits Asia,4,24048
1518637808,de7dee530905d01fd036b91c05784b93,DynamicQuestion,19,0,test,2,2+2+TrF+SupportP+happy+If Emma is happy that Michael lives in Japan and he lives in Tokyo then she will go visit him+Michael lives in Japan,6,12302
1518637808,de7dee530905d01fd036b91c05784b93,DynamicQuestion,136,0,test,1,11+2+TrF+SupportP+aware+If Grace is aware that David likes to eat out and he likes to eat at Mexican restaurants then she will take him for Mexican+David likes to eat out,5,15272
1518637808,de7dee530905d01fd036b91c05784b93,DynamicQuestion,215,0,test,1,18+2+P+SupportP+stop+If Samantha has stopped travelling to Italy then Anthony will offer to take her on his next trip to Spain+Samantha used to travel to Italy,5,14587
1518637808,de7dee530905d01fd036b91c05784b93,DynamicQuestion,660,0,test,5,55+2+Acceptable+SupportP+continue+She continues to enjoy playing hockey and might even try out for the varsity team next year.+Frances likes football,6,10582
1518637808,de7dee530905d01fd036b91c05784b93,DynamicQuestion,503,0,test,4,42+2+Unacceptable+ExplicitIgnoranceP+happy+Keith is happy that Rebecca is staying in his apartment and he will not ask her to move+Keith will not ask Rebecca to move,2,15340
1518637808,de7dee530905d01fd036b91c05784b93,DynamicQuestion,621,0,test,5,52+2+Unacceptable+ExplicitIgnoranceP+aware+Harry is aware that she has a German passport and he thinks that she should go to college there.+Marie is a German citizen,5,17635
1518637808,de7dee530905d01fd036b91c05784b93,DynamicQuestion,411,0,test,3,34+2+Acceptable+ExplicitIgnoranceP+-+If Joseph doesn't smoke then Jessica will refrain from smoking when he is around+Joseph doesn't smoke,6,12133
1518637808,de7dee530905d01fd036b91c05784b93,DynamicQuestion,202,0,test,1,17+2+TrF+SupportP+stop+If Hannah has stopped skipping classes and she used to skip French then Daniel will not report her to the principal+Hannah used to skip classes,5,15170
1518637808,de7dee530905d01fd036b91c05784b93,DynamicQuestion,568,0,test,4,47+2+Acceptable+SupportP+continue+Roy still works in Buenos Aires so Debra will try to meet him on her next trip there+Debra will try to meet Roy on her next trip there,6,25544
1518637808,de7dee530905d01fd036b91c05784b93,DynamicQuestion,529,0,test,4,44+2+Unacceptable+ExplicitIgnoranceP+aware+Willie is aware that Kathleen works as a journalist and he will offer her a job in his newspaper+Willie will offer Kathleen a job in his newspaper,2,13192
1518637808,de7dee530905d01fd036b91c05784b93,DynamicQuestion,150,0,test,1,13+2+TrL+SupportP+stop+If Emily used to play with toy cars and she has stopped playing with toys then Jacob will buy her racing video games for her birthday+Emily used to play with toys,1,17805
1518637808,de7dee530905d01fd036b91c05784b93,DynamicQuestion,71,0,test,6,6+2+P+SupportP+happy+If Samantha is happy that Anthony designs clothes then she will ask him to work for her+Anthony designs clothes,3,12528
1518637808,de7dee530905d01fd036b91c05784b93,DynamicQuestion,189,0,test,1,16+2+TrL+SupportP+stop+If Isabella used to drink a lot of coffee and she has stopped drinking coffee then Andrew will suggest that she order tea+Isabella used to drink coffee,5,16770
1518637808,de7dee530905d01fd036b91c05784b93,DynamicQuestion,32,0,test,3,3+2+P+SupportP+happy+If Madison is happy that Joshua plays an instrument then she will invite him to the party+Joshua plays an instrument,5,10751
1518637808,de7dee530905d01fd036b91c05784b93,DynamicQuestion,385,0,test,3,32+2+Acceptable+ExplicitIgnoranceP+-+If Alyssa hasn't worked in academia then Tyler will nominate somebody else for the research committee+Alyssa hasn't worked in academia,6,14148
1518637808,de7dee530905d01fd036b91c05784b93,DynamicQuestion,267,0,test,2,22+2+TrL+SupportP+continue+If Elizabeth has been eating red meat and she continues eating meat then Alexander will not want to go out to eat with her+Elizabeth has been eating meat,5,12842
1518637808,de7dee530905d01fd036b91c05784b93,DynamicQuestion,280,0,test,2,23+2+TrF+SupportP+continue+If Alexis continues failing exams and she has been flunking end-of-the-year exams then Ryan will suggest that she work with the counselling center+Alexis has been failing exams,5,18513
1518637808,de7dee530905d01fd036b91c05784b93,DynamicQuestion,137,0,test,1,12+2+P+SupportP+aware+If Alyssa is aware that Tyler likes animals then she will ask him if he knows anyone that could walk her dog +Tyler likes animals,5,10323
1518637808,de7dee530905d01fd036b91c05784b93,DynamicQuestion,359,0,test,3,30+2+Acceptable+ExplicitIgnoranceP+-+If Olivia never went to the gym then Ethan will ask her to train with him+Olivia never went to the gym,6,9455
1518637808,de7dee530905d01fd036b91c05784b93,DynamicQuestion,6,0,test,1,1+2+TrL+SupportP+happy+If Jacob is in Paris and Emily is happy that he is in France then she will call him soon+Jacob is in France,4,15149
1518637808,de7dee530905d01fd036b91c05784b93,DynamicQuestion,424,0,test,3,35+2+Unacceptable+SupportP+-+If Shirley doesn't play basketball then Juan will not ask her to teach basketball to disadvantaged kids in the summer+Shirley doesn't play basketball,0,13361
1518637808,de7dee530905d01fd036b91c05784b93,DynamicQuestion,176,0,test,1,15+2+P+SupportP+stop+If Abigail has stopped doing yoga then Matthew will interview her for his story+Abigail used to do  yoga,4,26175
1518637808,de7dee530905d01fd036b91c05784b93,DynamicQuestion,542,0,test,4,45+2+Acceptable+SupportP+stop+Ralph has stopped working at night so Pamela will invite him out for dinner+Pamela will invite Ralph out for dinner,6,12729
1518637808,de7dee530905d01fd036b91c05784b93,DynamicQuestion,110,0,test,9,9+2+P+SupportP+aware+If Sophia is aware that William likes musical instruments then she will ask him to visit the musem of musical instruments with her+William likes musical instruments,6,13131
1518637808,de7dee530905d01fd036b91c05784b93,DynamicQuestion,464,0,test,3,39+2+Unacceptable+SupportP+-+If Justin doesn't collect coins then Brenda will not bring him coins from her trip to Asia+Justin doesn't collect coins,1,18986
1518637808,de7dee530905d01fd036b91c05784b93,DynamicQuestion,294,0,test,2,25+2+Unacceptable+SupportP+-+If Ethan isn't coming to England then Olivia will invite somebody else for dinner +Ethan isn't coming to England,0,8555
1518637808,de7dee530905d01fd036b91c05784b93,DynamicQuestion,163,0,test,1,14+2+TrF+SupportP+stop+If Emma has stopped reading novels and she used to enjoy sci-fi novels then Michael will take her to a sci-fi movie+Emma used to read novels,2,16194
1518637808,de7dee530905d01fd036b91c05784b93,DynamicQuestion,333,0,test,2,28+2+Acceptable+ExplicitIgnoranceP+-+If Nicholas doesn't eat meat then Sarah will share her lunch with him+Nicholas doesn't eat meat,5,14013
1518637808,de7dee530905d01fd036b91c05784b93,DynamicQuestion,84,0,test,7,7+2+TrL+SupportP+aware+If Christopher smokes Marlboros and Ava is aware that he smokes cigarettes then she will tell him about the recent class action suit+Christopher smokes cigarettes,6,15655
1518637808,de7dee530905d01fd036b91c05784b93,DynamicQuestion,241,0,test,2,20+2+TrF+SupportP+continue+If Ashley continues watching sports and she has been watching baseball then Joseph will invite her to watch next year’s World Series with him+Ashley has been watching sports,5,19469
1518637808,de7dee530905d01fd036b91c05784b93,DynamicQuestion,97,0,test,8,8+2+TrF+SupportP+aware+If Ashley is aware that Joseph likes music and he likes classical music then she will give him a biography of Beethoven+Joseph likes music,6,11583
#
# Results on Wednesday February 14 2018 21:44:42 UTC.
# USER AGENT: Mozilla/5.0 (Macintosh; Intel Mac OS X 10.11; rv:52.0) Gecko/20100101 Firefox/52.0
# Design number was non-random = 3
#
# Columns below this comment are as follows:
# 1. Time results were received.
# 2. MD5 hash of participant's IP address.
# 3. Controller name.
# 4. Item number.
# 5. Element number.
# 6. Type.
# 7. Group.
# 8. Field name.
# 9. Field value.
1518644682,de7dee530905d01fd036b91c05784b93,Form,0,0,id,NULL,ID,id44
1518644682,de7dee530905d01fd036b91c05784b93,Form,0,0,id,NULL,_REACTION_TIME_,3549
# Columns below this comment are as follows:
# 1. Time results were received.
# 2. MD5 hash of participant's IP address.
# 3. Controller name.
# 4. Item number.
# 5. Element number.
# 6. Type.
# 7. Group.
# 8. Question.
# 9. Answer.
# 10. Time.
1518644682,de7dee530905d01fd036b91c05784b93,DynamicQuestion,2,0,practice,NULL,practice1,6,24123
1518644682,de7dee530905d01fd036b91c05784b93,DynamicQuestion,3,0,practice,NULL,practice2,0,22512
1518644682,de7dee530905d01fd036b91c05784b93,DynamicQuestion,191,0,test,1,16+4+TrF+ExplicitIgnoranceP+stop+If Isabella has stopped drinking coffee and she used to drink a lot of coffee then Andrew will suggest that she order tea+Isabella used to drink coffee,0,20499
1518644682,de7dee530905d01fd036b91c05784b93,DynamicQuestion,597,0,test,5,50+4+Acceptable+SupportP+happy+Brandon is happy that Carolyn has friends in Amsterdam and is planning to pay them a visit when he is there next month.+Carolyn has friends in Amsterdam,6,11765
1518644682,de7dee530905d01fd036b91c05784b93,DynamicQuestion,257,0,test,2,22+4+TrF+ExplicitIgnoranceP+continue+If Elizabeth continues eating meat and she has been eating red meat then Alexander will not want to go out to eat with her+Elizabeth has been eating meat,4,21018
1518644682,de7dee530905d01fd036b91c05784b93,DynamicQuestion,623,0,test,5,52+4+Acceptable+SupportP+aware+Harry is aware that she has a German passport and he thinks that she should go to college there.+Marie is a German citizen,6,14620
1518644682,de7dee530905d01fd036b91c05784b93,DynamicQuestion,309,0,test,2,26+4+Unacceptable+SupportP+-+If Andrew doesn't play a sport then Isabella will invite him to train with her+Andrew doesn't play a sport,4,21853
1518644682,de7dee530905d01fd036b91c05784b93,DynamicQuestion,361,0,test,3,30+4+Unacceptable+SupportP+-+If Olivia never went to the gym then Ethan will ask her to train with him+Olivia never went to the gym,6,14641
1518644682,de7dee530905d01fd036b91c05784b93,DynamicQuestion,453,0,test,3,38+4+Unacceptable+SupportP+-+If Jonathan doesn't dance then Melissa will not invite him to perform at her show+Jonathan doesn't dance,2,17960
1518644682,de7dee530905d01fd036b91c05784b93,DynamicQuestion,518,0,test,4,43+4+Unacceptable+ExplicitIgnoranceP+aware+Samuel is aware that Virginia has studied law and he will ask her for help with his case+Samuel will ask Virginia for help with his case,5,27647
1518644682,de7dee530905d01fd036b91c05784b93,DynamicQuestion,401,0,test,3,34+4+Unacceptable+SupportP+-+If Joseph doesn't smoke then Jessica will refrain from smoking when he is around+Joseph doesn't smoke,5,12279
1518644682,de7dee530905d01fd036b91c05784b93,DynamicQuestion,492,0,test,4,41+4+Unacceptable+ExplicitIgnoranceP+happy+Gerald is happy that Anna is pregnant and he will buy her a present+Gerald will buy Anna a present,0,14517
1518644682,de7dee530905d01fd036b91c05784b93,DynamicQuestion,610,0,test,5,51+4+Unacceptable+ExplicitIgnoranceP+aware+Adam is aware that she was offered a job in Paris and he thinks that it would be a great career step for her.+Christine was offered a job in France,6,32070
1518644682,de7dee530905d01fd036b91c05784b93,DynamicQuestion,348,0,test,2,29+4+Acceptable+ExplicitIgnoranceP+-+If Madison never drank then Joshua will invite her to his group+Madison never drank,4,14797
1518644682,de7dee530905d01fd036b91c05784b93,DynamicQuestion,440,0,test,3,37+4+Acceptable+ExplicitIgnoranceP+-+If Albert doesn't export alcohol to the Middle East then Angela will not ask him to sell the wine from her vineyard+Albert doesn't export alcohol to the Middle East,0,16982
1518644682,de7dee530905d01fd036b91c05784b93,DynamicQuestion,60,0,test,5,5+4+P+ExplicitIgnoranceP+happy+If Hannah is happy that Daniel sells flowers then she will go check out his store+Daniel sells flowers,1,14473
1518644682,de7dee530905d01fd036b91c05784b93,DynamicQuestion,322,0,test,2,27+4+Acceptable+ExplicitIgnoranceP+-+If Alexander doesn't drink soda then Elizabeth will buy some beer at the grocery store+Alexander doesn't drink soda,2,17727
1518644682,de7dee530905d01fd036b91c05784b93,DynamicQuestion,47,0,test,4,4+4+TrF+ExplicitIgnoranceP+happy+If Abigail is happy that Matthew travelled to Germany and he travelled to Berlin then she will ask him to write a post on her blog+Matthew travelled to Germany,5,16913
1518644682,de7dee530905d01fd036b91c05784b93,DynamicQuestion,531,0,test,4,44+4+Acceptable+SupportP+aware+Willie is aware that Kathleen works as a journalist and he will offer her a job in his newspaper+Willie will offer Kathleen a job in his newspaper,6,16342
1518644682,de7dee530905d01fd036b91c05784b93,DynamicQuestion,256,0,test,2,21+4+TrL+ExplicitIgnoranceP+continue+If Sophia has been eating at expensive restaurants and she continues going out to eat then William will get her a Wine and Dine magazine subscription+Sophia has been going out to eat,3,34992
1518644682,de7dee530905d01fd036b91c05784b93,DynamicQuestion,283,0,test,2,24+4+TrL+ExplicitIgnoranceP+continue+If Sarah has been adopting cats and she continues adopting pets then Nicholas will suggest she move out+Sarah has been adopting pets,4,23382
1518644682,de7dee530905d01fd036b91c05784b93,DynamicQuestion,675,0,test,5,56+4+Acceptable+SupportP+continue+She still doesn't have a cell phone so Bill can only call her when she's at home or in the office.+Ann does not have a mobile phone,0,24247
1518644682,de7dee530905d01fd036b91c05784b93,DynamicQuestion,34,0,test,3,3+4+TrL+ExplicitIgnoranceP+happy+If Joshua plays the piano and Madison is happy that he plays an instrument then she will invite him to the party+Joshua plays an instrument,2,11098
1518644682,de7dee530905d01fd036b91c05784b93,DynamicQuestion,335,0,test,2,28+4+Unacceptable+SupportP+-+If Nicholas doesn't eat meat then Sarah will share her lunch with him+Nicholas doesn't eat meat,5,9187
1518644682,de7dee530905d01fd036b91c05784b93,DynamicQuestion,400,0,test,3,33+4+Acceptable+ExplicitIgnoranceP+-+If Roger never has worked in the military then Deborah will ask somebody else to give a talk at her group +Roger never has worked in the military,5,24510
1518644682,de7dee530905d01fd036b91c05784b93,DynamicQuestion,8,0,test,1,1+4+TrF+ExplicitIgnoranceP+happy+If Emily is happy that Jacob is in France and he is in Paris then she will call him soon+Jacob is in France,1,18613
1518644682,de7dee530905d01fd036b91c05784b93,DynamicQuestion,230,0,test,1,19+4+TrF+ExplicitIgnoranceP+continue+If Ava continues visiting museums and she has been frequenting science museums then Christopher will have a lot to talk to her about+Ava has been visiting museums,5,22485
1518644682,de7dee530905d01fd036b91c05784b93,DynamicQuestion,152,0,test,1,13+4+TrF+ExplicitIgnoranceP+stop+If Emily has stopped playing with toys and she used to play with toy cars then Jacob will buy her racing video games for her birthday+Emily used to play with toys,2,18263
1518644682,de7dee530905d01fd036b91c05784b93,DynamicQuestion,571,0,test,4,48+4+Acceptable+SupportP+continue+Benjamin still works for United so Amanda will interview him for her school newspaper+Amanda will interview Benjamin for her school newspaper,5,16768
1518644682,de7dee530905d01fd036b91c05784b93,DynamicQuestion,86,0,test,7,7+4+TrF+ExplicitIgnoranceP+aware+If Ava is aware that Christopher smokes cigarettes and he smokes Marlboros then she will tell him about the recent class action suit+Christopher smokes cigarettes,1,14091
1518644682,de7dee530905d01fd036b91c05784b93,DynamicQuestion,165,0,test,1,14+4+P+ExplicitIgnoranceP+stop+If Emma has stopped reading novels then Michael will take her to a sci-fi movie+Emma used to read novels,3,25557
1518644682,de7dee530905d01fd036b91c05784b93,DynamicQuestion,296,0,test,2,25+4+Acceptable+ExplicitIgnoranceP+-+If Ethan isn't coming to England then Olivia will invite somebody else for dinner +Ethan isn't coming to England,6,13428
1518644682,de7dee530905d01fd036b91c05784b93,DynamicQuestion,545,0,test,4,46+4+Acceptable+SupportP+stop+Lawrence has stopped running in the morning so Martha will convince him to go to the gym with her in the evening+Martha will convince Lawrence to go to the gym with her in the evening,0,17331
1518644682,de7dee530905d01fd036b91c05784b93,DynamicQuestion,217,0,test,1,18+4+TrL+ExplicitIgnoranceP+stop+If Samantha used to go to Rome and she has stopped travelling to Italy then Anthony will offer to take her on his next trip to Spain+Samantha used to travel to Italy,5,14565
1518644682,de7dee530905d01fd036b91c05784b93,DynamicQuestion,479,0,test,4,40+4+Unacceptable+SupportP+-+If Terry doesn't work in a restaurant then Amy will not ask him to cook for her party +Terry doesn't work in a restaurant,0,11550
1518644682,de7dee530905d01fd036b91c05784b93,DynamicQuestion,662,0,test,5,55+4+Unacceptable+ExplicitIgnoranceP+continue+She continues to enjoy playing hockey and might even try out for the varsity team next year.+Frances likes football,5,13980
1518644682,de7dee530905d01fd036b91c05784b93,DynamicQuestion,427,0,test,3,36+4+Unacceptable+SupportP+-+If Jack never visits Asia then Cynthia will invite him to travel somewhere else with her+Jack never visits Asia,0,17973
1518644682,de7dee530905d01fd036b91c05784b93,DynamicQuestion,21,0,test,2,2+4+P+ExplicitIgnoranceP+happy+If Emma is happy that Michael lives in Japan then she will go visit him+Michael lives in Japan,4,11997
1518644682,de7dee530905d01fd036b91c05784b93,DynamicQuestion,126,0,test,1,11+4+P+ExplicitIgnoranceP+aware+If Grace is aware that David likes to eat out then she will take him for Mexican+David likes to eat out,2,17205
1518644682,de7dee530905d01fd036b91c05784b93,DynamicQuestion,178,0,test,1,15+4+TrL+ExplicitIgnoranceP+stop+If Abigail used to practice Jivamukti yoga and she has stopped doing yoga then Matthew will interview her for his story+Abigail used to do  yoga,4,21694
1518644682,de7dee530905d01fd036b91c05784b93,DynamicQuestion,466,0,test,3,39+4+Acceptable+ExplicitIgnoranceP+-+If Justin doesn't collect coins then Brenda will not bring him coins from her trip to Asia+Justin doesn't collect coins,5,21911
1518644682,de7dee530905d01fd036b91c05784b93,DynamicQuestion,139,0,test,1,12+4+TrL+ExplicitIgnoranceP+aware+If Tyler likes dogs and Alyssa is aware that he likes animals then she will ask him if he knows anyone that could walk her dog +Tyler likes animals,0,20763
1518644682,de7dee530905d01fd036b91c05784b93,DynamicQuestion,558,0,test,4,47+4+Unacceptable+ExplicitIgnoranceP+continue+Roy still works in Buenos Aires so Debra will try to meet him on her next trip there+Debra will try to meet Roy on her next trip there,6,18738
1518644682,de7dee530905d01fd036b91c05784b93,DynamicQuestion,243,0,test,2,20+4+P+ExplicitIgnoranceP+continue+If Ashley continues watching sports then Joseph will invite her to watch next year’s World Series with him+Ashley has been watching sports,5,20042
1518644682,de7dee530905d01fd036b91c05784b93,DynamicQuestion,112,0,test,9,9+4+TrL+ExplicitIgnoranceP+aware+If William likes violins and Sophia is aware that he likes musical instruments then she will ask him to visit the musem of musical instruments with her+William likes musical instruments,6,11212
1518644682,de7dee530905d01fd036b91c05784b93,DynamicQuestion,73,0,test,6,6+4+TrL+ExplicitIgnoranceP+happy+If Anthony designs shirts and Samantha is happy that he designs clothes then she will ask him to work for her+Anthony designs clothes,5,12270
1518644682,de7dee530905d01fd036b91c05784b93,DynamicQuestion,414,0,test,3,35+4+Acceptable+ExplicitIgnoranceP+-+If Shirley doesn't play basketball then Juan will not ask her to teach basketball to disadvantaged kids in the summer+Shirley doesn't play basketball,6,22957
1518644682,de7dee530905d01fd036b91c05784b93,DynamicQuestion,374,0,test,3,31+4+Acceptable+ExplicitIgnoranceP+-+If Grace hasn't been hosting parties then David will go live somewhere else+Grace hasn't been hosting parties,1,22012
1518644682,de7dee530905d01fd036b91c05784b93,DynamicQuestion,544,0,test,4,45+4+Unacceptable+ExplicitIgnoranceP+stop+Ralph has stopped working at night so Pamela will invite him out for dinner+Pamela will invite Ralph out for dinner,6,12010
1518644682,de7dee530905d01fd036b91c05784b93,DynamicQuestion,505,0,test,4,42+4+Acceptable+SupportP+happy+Keith is happy that Rebecca is staying in his apartment and he will not ask her to move+Keith will not ask Rebecca to move,6,12280
1518644682,de7dee530905d01fd036b91c05784b93,DynamicQuestion,270,0,test,2,23+4+P+ExplicitIgnoranceP+continue+If Alexis continues failing exams then Ryan will suggest that she work with the counselling center+Alexis has been failing exams,6,11255
1518644682,de7dee530905d01fd036b91c05784b93,DynamicQuestion,113,0,test,1,10+4+TrF+ExplicitIgnoranceP+aware+If Alexis is aware that Ryan drives and he drives a Toyota then she will get a ride from him+Ryan drives,5,6926
1518644682,de7dee530905d01fd036b91c05784b93,DynamicQuestion,387,0,test,3,32+4+Unacceptable+SupportP+-+If Alyssa hasn't worked in academia then Tyler will nominate somebody else for the research committee+Alyssa hasn't worked in academia,2,19334
1518644682,de7dee530905d01fd036b91c05784b93,DynamicQuestion,636,0,test,5,53+4+Unacceptable+ExplicitIgnoranceP+stop+She has stopped eating bread so she's been trying out different alternatives.+Janet likes cheese,4,7871
1518644682,de7dee530905d01fd036b91c05784b93,DynamicQuestion,204,0,test,1,17+4+P+ExplicitIgnoranceP+stop+If Hannah has stopped skipping classes then Daniel will not report her to the principal+Hannah used to skip classes,0,8950
1518644682,de7dee530905d01fd036b91c05784b93,DynamicQuestion,584,0,test,4,49+4+Unacceptable+ExplicitIgnoranceP+happy+Bruce is happy that Stephanie is fluent in Mandarin and he will ask her to help him host Chinese visitors.+Stephanie speask an Asian language,5,5363
1518644682,de7dee530905d01fd036b91c05784b93,DynamicQuestion,649,0,test,5,54+4+Acceptable+SupportP+stop+Catherine has stopped serving on the facilities committee so she has a little bit more free time now.+Catherine is not crucial for the current project,5,7340
1518644682,de7dee530905d01fd036b91c05784b93,DynamicQuestion,99,0,test,8,8+4+P+ExplicitIgnoranceP+aware+If Ashley is aware that Joseph likes music then she will give him a biography of Beethoven+Joseph likes music,5,7544
#
# Results on Wednesday February 14 2018 21:46:02 UTC.
# USER AGENT: Mozilla/5.0 (Macintosh; Intel Mac OS X 10.11; rv:52.0) Gecko/20100101 Firefox/52.0
# Design number was non-random = 2
#
# Columns below this comment are as follows:
# 1. Time results were received.
# 2. MD5 hash of participant's IP address.
# 3. Controller name.
# 4. Item number.
# 5. Element number.
# 6. Type.
# 7. Group.
# 8. Field name.
# 9. Field value.
1518644762,df8c55c5cfffacb271d2cf2e1ff3e3d2,Form,0,0,id,NULL,ID,id33
1518644762,df8c55c5cfffacb271d2cf2e1ff3e3d2,Form,0,0,id,NULL,_REACTION_TIME_,6473
# Columns below this comment are as follows:
# 1. Time results were received.
# 2. MD5 hash of participant's IP address.
# 3. Controller name.
# 4. Item number.
# 5. Element number.
# 6. Type.
# 7. Group.
# 8. Question.
# 9. Answer.
# 10. Time.
1518644762,df8c55c5cfffacb271d2cf2e1ff3e3d2,DynamicQuestion,2,0,practice,NULL,practice1,6,47138
1518644762,df8c55c5cfffacb271d2cf2e1ff3e3d2,DynamicQuestion,3,0,practice,NULL,practice2,0,31071
1518644762,df8c55c5cfffacb271d2cf2e1ff3e3d2,DynamicQuestion,295,0,test,2,25+3+Unacceptable+SupportP+-+If Ethan isn't coming to England then Olivia will invite somebody else for dinner +Ethan isn't coming to England,1,22516
1518644762,df8c55c5cfffacb271d2cf2e1ff3e3d2,DynamicQuestion,373,0,test,3,31+3+Unacceptable+SupportP+-+If Grace hasn't been hosting parties then David will go live somewhere else+Grace hasn't been hosting parties,1,34536
1518644762,df8c55c5cfffacb271d2cf2e1ff3e3d2,DynamicQuestion,439,0,test,3,37+3+Unacceptable+SupportP+-+If Albert doesn't export alcohol to the Middle East then Angela will not ask him to sell the wine from her vineyard+Albert doesn't export alcohol to the Middle East,5,30833
1518644762,df8c55c5cfffacb271d2cf2e1ff3e3d2,DynamicQuestion,583,0,test,4,49+3+Acceptable+SupportP+happy+Bruce is happy that Stephanie is fluent in Mandarin and he will ask her to help him host Chinese visitors.+Bruce will be excited to learn that Stephanie is fluent in Mandarin Chinese,6,16952
1518644762,df8c55c5cfffacb271d2cf2e1ff3e3d2,DynamicQuestion,72,0,test,6,6+3+TrF+SupportP+happy+If Samantha is happy that Anthony designs clothes and he designs shirts then she will ask him to work for her+Anthony designs clothes,3,33520
1518644762,df8c55c5cfffacb271d2cf2e1ff3e3d2,DynamicQuestion,557,0,test,4,47+3+Acceptable+SupportP+continue+Roy still works in Buenos Aires so Debra will try to meet him on her next trip there+Debra will try to meet Roy on her next trip there,6,29832
1518644762,df8c55c5cfffacb271d2cf2e1ff3e3d2,DynamicQuestion,98,0,test,8,8+3+TrL+SupportP+aware+If Joseph likes classical music and Ashley is aware that he likes music then she will give him a biography of Beethoven+Joseph likes music,6,20728
1518644762,df8c55c5cfffacb271d2cf2e1ff3e3d2,DynamicQuestion,543,0,test,4,45+3+Acceptable+SupportP+stop+Ralph has stopped working at night so Pamela will invite him out for dinner+Pamela will invite Ralph out for dinner,6,21855
1518644762,df8c55c5cfffacb271d2cf2e1ff3e3d2,DynamicQuestion,46,0,test,4,4+3+P+SupportP+happy+If Abigail is happy that Matthew travelled to Germany then she will ask him to write a post on her blog+Matthew travelled to Germany,5,19434
1518644762,df8c55c5cfffacb271d2cf2e1ff3e3d2,DynamicQuestion,255,0,test,2,21+3+TrF+SupportP+continue+If Sophia continues going out to eat and she has been eating at expensive restaurants then William will get her a Wine and Dine magazine subscription+Sophia has been going out to eat,1,23314
1518644762,df8c55c5cfffacb271d2cf2e1ff3e3d2,DynamicQuestion,465,0,test,3,39+3+Unacceptable+SupportP+-+If Justin doesn't collect coins then Brenda will not bring him coins from her trip to Asia+Justin doesn't collect coins,6,23041
1518644762,df8c55c5cfffacb271d2cf2e1ff3e3d2,DynamicQuestion,59,0,test,5,5+3+TrL+SupportP+happy+If Daniel sells roses and Hannah is happy that he sells flowers then she will go check out his store+Daniel sells flowers,6,27329
1518644762,df8c55c5cfffacb271d2cf2e1ff3e3d2,DynamicQuestion,556,0,test,4,46+3+Unacceptable+ExplicitIgnoranceP+stop+Lawrence has stopped running in the morning so Martha will convince him to go to the gym with her in the evening+Martha will convince Lawrence to go to the gym with her in the evening,4,19377
1518644762,df8c55c5cfffacb271d2cf2e1ff3e3d2,DynamicQuestion,360,0,test,3,30+3+Acceptable+ExplicitIgnoranceP+-+If Olivia never went to the gym then Ethan will ask her to train with him+Olivia never went to the gym,0,13215
1518644762,df8c55c5cfffacb271d2cf2e1ff3e3d2,DynamicQuestion,622,0,test,5,52+3+Unacceptable+ExplicitIgnoranceP+aware+Harry is aware that she has a German passport and he thinks that she should go to college there.+Harry will be excited to learn that Marie is a German citizen,0,36298
1518644762,df8c55c5cfffacb271d2cf2e1ff3e3d2,DynamicQuestion,177,0,test,1,15+3+TrF+SupportP+stop+If Abigail has stopped doing yoga and she used to practice Jivamukti yoga then Matthew will interview her for his story+Abigail used to do  yoga,5,15706
1518644762,df8c55c5cfffacb271d2cf2e1ff3e3d2,DynamicQuestion,282,0,test,2,24+3+TrF+SupportP+continue+If Sarah continues adopting pets and she has been adopting cats then Nicholas will suggest she move out+Sarah has been adopting pets,0,29098
1518644762,df8c55c5cfffacb271d2cf2e1ff3e3d2,DynamicQuestion,229,0,test,1,19+3+P+SupportP+continue+If Ava continues visiting museums then Christopher will have a lot to talk to her about+Ava has been visiting museums,5,18642
1518644762,df8c55c5cfffacb271d2cf2e1ff3e3d2,DynamicQuestion,203,0,test,1,17+3+TrL+SupportP+stop+If Hannah used to skip French and she has stopped skipping classes then Daniel will not report her to the principal+Hannah used to skip classes,6,30867
1518644762,df8c55c5cfffacb271d2cf2e1ff3e3d2,DynamicQuestion,190,0,test,1,16+3+P+SupportP+stop+If Isabella has stopped drinking coffee then Andrew will suggest that she order tea+Isabella used to drink coffee,3,21298
1518644762,df8c55c5cfffacb271d2cf2e1ff3e3d2,DynamicQuestion,138,0,test,1,12+3+TrF+SupportP+aware+If Alyssa is aware that Tyler likes animals and he likes dogs then she will ask him if he knows anyone that could walk her dog +Tyler likes animals,2,32098
1518644762,df8c55c5cfffacb271d2cf2e1ff3e3d2,DynamicQuestion,635,0,test,5,53+3+Acceptable+SupportP+stop+She has stopped eating bread so she's been trying out different alternatives.+Fred will not order out from his favourite Italian restaurant,6,16314
1518644762,df8c55c5cfffacb271d2cf2e1ff3e3d2,DynamicQuestion,151,0,test,1,13+3+P+SupportP+stop+If Emily has stopped playing with toys then Jacob will buy her racing video games for her birthday+Emily used to play with toys,0,21255
1518644762,df8c55c5cfffacb271d2cf2e1ff3e3d2,DynamicQuestion,413,0,test,3,35+3+Unacceptable+SupportP+-+If Shirley doesn't play basketball then Juan will not ask her to teach basketball to disadvantaged kids in the summer+Shirley doesn't play basketball,1,22921
1518644762,df8c55c5cfffacb271d2cf2e1ff3e3d2,DynamicQuestion,674,0,test,5,56+3+Unacceptable+ExplicitIgnoranceP+continue+She still doesn't have a cell phone so Bill can only call her when she's at home or in the office.+Steve will send Ann an email to her home address,6,12786
1518644762,df8c55c5cfffacb271d2cf2e1ff3e3d2,DynamicQuestion,125,0,test,1,11+3+TrL+SupportP+aware+If David likes to eat at Mexican restaurants and Grace is aware that he likes to eat out then she will take him for Mexican+David likes to eat out,6,15279
1518644762,df8c55c5cfffacb271d2cf2e1ff3e3d2,DynamicQuestion,242,0,test,2,20+3+TrL+SupportP+continue+If Ashley has been watching baseball and she continues watching sports then Joseph will invite her to watch next year’s World Series with him+Ashley has been watching sports,6,29338
1518644762,df8c55c5cfffacb271d2cf2e1ff3e3d2,DynamicQuestion,504,0,test,4,42+3+Unacceptable+ExplicitIgnoranceP+happy+Keith is happy that Rebecca is staying in his apartment and he will not ask her to move+Keith will not ask Rebecca to move,1,18161
1518644762,df8c55c5cfffacb271d2cf2e1ff3e3d2,DynamicQuestion,20,0,test,2,2+3+TrL+SupportP+happy+If Michael lives in Tokyo and Emma is happy that he lives in Japan then she will go visit him+Michael lives in Japan,5,15928
1518644762,df8c55c5cfffacb271d2cf2e1ff3e3d2,DynamicQuestion,452,0,test,3,38+3+Acceptable+ExplicitIgnoranceP+-+If Jonathan doesn't dance then Melissa will not invite him to perform at her show+Jonathan doesn't dance,6,21601
1518644762,df8c55c5cfffacb271d2cf2e1ff3e3d2,DynamicQuestion,216,0,test,1,18+3+TrF+SupportP+stop+If Samantha has stopped travelling to Italy and she used to go to Rome then Anthony will offer to take her on his next trip to Spain+Samantha used to travel to Italy,3,14610
1518644762,df8c55c5cfffacb271d2cf2e1ff3e3d2,DynamicQuestion,491,0,test,4,41+3+Acceptable+SupportP+happy+Gerald is happy that Anna is pregnant and he will buy her a present+Gerald will buy Anna a present,6,6707
1518644762,df8c55c5cfffacb271d2cf2e1ff3e3d2,DynamicQuestion,399,0,test,3,33+3+Unacceptable+SupportP+-+If Roger never has worked in the military then Deborah will ask somebody else to give a talk at her group +Roger never has worked in the military,5,17057
1518644762,df8c55c5cfffacb271d2cf2e1ff3e3d2,DynamicQuestion,268,0,test,2,22+3+P+SupportP+continue+If Elizabeth continues eating meat then Alexander will not want to go out to eat with her+Elizabeth has been eating meat,0,9146
1518644762,df8c55c5cfffacb271d2cf2e1ff3e3d2,DynamicQuestion,478,0,test,4,40+3+Acceptable+ExplicitIgnoranceP+-+If Terry doesn't work in a restaurant then Amy will not ask him to cook for her party +Terry doesn't work in a restaurant,0,10183
1518644762,df8c55c5cfffacb271d2cf2e1ff3e3d2,DynamicQuestion,386,0,test,3,32+3+Acceptable+ExplicitIgnoranceP+-+If Alyssa hasn't worked in academia then Tyler will nominate somebody else for the research committee+Alyssa hasn't worked in academia,1,12291
1518644762,df8c55c5cfffacb271d2cf2e1ff3e3d2,DynamicQuestion,111,0,test,9,9+3+TrF+SupportP+aware+If Sophia is aware that William likes musical instruments and he likes violins then she will ask him to visit the musem of musical instruments with her+William likes musical instruments,6,20793
1518644762,df8c55c5cfffacb271d2cf2e1ff3e3d2,DynamicQuestion,85,0,test,7,7+3+P+SupportP+aware+If Ava is aware that Christopher smokes cigarettes then she will tell him about the recent class action suit+Christopher smokes cigarettes,2,13573
1518644762,df8c55c5cfffacb271d2cf2e1ff3e3d2,DynamicQuestion,570,0,test,4,48+3+Unacceptable+ExplicitIgnoranceP+continue+Benjamin still works for United so Amanda will interview him for her school newspaper+Amanda will interview Benjamin for her school newspaper,1,12672
1518644762,df8c55c5cfffacb271d2cf2e1ff3e3d2,DynamicQuestion,609,0,test,5,51+3+Acceptable+SupportP+aware+Adam is aware that she was offered a job in Paris and he thinks that it would be a great career step for her.+Adam will be excited to learn that Christine was offered a job in Paris,6,23249
1518644762,df8c55c5cfffacb271d2cf2e1ff3e3d2,DynamicQuestion,164,0,test,1,14+3+TrL+SupportP+stop+If Emma used to enjoy sci-fi novels and she has stopped reading novels then Michael will take her to a sci-fi movie+Emma used to read novels,0,22408
1518644762,df8c55c5cfffacb271d2cf2e1ff3e3d2,DynamicQuestion,347,0,test,2,29+3+Unacceptable+SupportP+-+If Madison never drank then Joshua will invite her to his group+Madison never drank,0,7330
1518644762,df8c55c5cfffacb271d2cf2e1ff3e3d2,DynamicQuestion,412,0,test,3,34+3+Acceptable+ExplicitIgnoranceP+-+If Joseph doesn't smoke then Jessica will refrain from smoking when he is around+Joseph doesn't smoke,6,9447
1518644762,df8c55c5cfffacb271d2cf2e1ff3e3d2,DynamicQuestion,648,0,test,5,54+3+Unacceptable+ExplicitIgnoranceP+stop+Catherine has stopped serving on the facilities committee so she has a little bit more free time now.+Wayne will not ask Catherine to come for the next committee meeting,2,13288
1518644762,df8c55c5cfffacb271d2cf2e1ff3e3d2,DynamicQuestion,334,0,test,2,28+3+Acceptable+ExplicitIgnoranceP+-+If Nicholas doesn't eat meat then Sarah will share her lunch with him+Nicholas doesn't eat meat,2,7075
1518644762,df8c55c5cfffacb271d2cf2e1ff3e3d2,DynamicQuestion,596,0,test,5,50+3+Unacceptable+ExplicitIgnoranceP+happy+Brandon is happy that Carolyn has friends in Amsterdam and is planning to pay them a visit when he is there next month.+Brandon will be excited to learn that Carolyn has friends in Amsterdam,6,12372
1518644762,df8c55c5cfffacb271d2cf2e1ff3e3d2,DynamicQuestion,308,0,test,2,26+3+Acceptable+ExplicitIgnoranceP+-+If Andrew doesn't play a sport then Isabella will invite him to train with her+Andrew doesn't play a sport,2,11504
1518644762,df8c55c5cfffacb271d2cf2e1ff3e3d2,DynamicQuestion,7,0,test,1,1+3+P+SupportP+happy+If Emily is happy that Jacob is in France then she will call him soon+Jacob is in France,6,6825
1518644762,df8c55c5cfffacb271d2cf2e1ff3e3d2,DynamicQuestion,124,0,test,1,10+3+P+SupportP+aware+If Alexis is aware that Ryan drives then she will get a ride from him+Ryan drives,5,9282
1518644762,df8c55c5cfffacb271d2cf2e1ff3e3d2,DynamicQuestion,33,0,test,3,3+3+TrF+SupportP+happy+If Madison is happy that Joshua plays an instrument and he plays the piano then she will invite him to the party+Joshua plays an instrument,3,8953
1518644762,df8c55c5cfffacb271d2cf2e1ff3e3d2,DynamicQuestion,661,0,test,5,55+3+Acceptable+SupportP+continue+She continues to enjoy playing hockey and might even try out for the varsity team next year.+Billy will bring Frances to the movies,6,19713
1518644762,df8c55c5cfffacb271d2cf2e1ff3e3d2,DynamicQuestion,321,0,test,2,27+3+Unacceptable+SupportP+-+If Alexander doesn't drink soda then Elizabeth will buy some beer at the grocery store+Alexander doesn't drink soda,6,12682
1518644762,df8c55c5cfffacb271d2cf2e1ff3e3d2,DynamicQuestion,517,0,test,4,43+3+Acceptable+SupportP+aware+Samuel is aware that Virginia has studied law and he will ask her for help with his case+Samuel will ask Virginia for help with his case,6,8643
1518644762,df8c55c5cfffacb271d2cf2e1ff3e3d2,DynamicQuestion,426,0,test,3,36+3+Acceptable+ExplicitIgnoranceP+-+If Jack never visits Asia then Cynthia will invite him to travel somewhere else with her+Jack never visits Asia,2,16603
1518644762,df8c55c5cfffacb271d2cf2e1ff3e3d2,DynamicQuestion,530,0,test,4,44+3+Unacceptable+ExplicitIgnoranceP+aware+Willie is aware that Kathleen works as a journalist and he will offer her a job in his newspaper+Willie will offer Kathleen a job in his newspaper,4,14682
1518644762,df8c55c5cfffacb271d2cf2e1ff3e3d2,DynamicQuestion,269,0,test,2,23+3+TrL+SupportP+continue+If Alexis has been flunking end-of-the-year exams and she continues failing exams then Ryan will suggest that she work with the counselling center+Alexis has been failing exams,6,10354
#
# Results on Thursday February 15 2018 19:46:18 UTC.
# USER AGENT: Mozilla/5.0 (Macintosh; Intel Mac OS X 10.11; rv:52.0) Gecko/20100101 Firefox/52.0
# Design number was non-random = 4
#
# Columns below this comment are as follows:
# 1. Time results were received.
# 2. MD5 hash of participant's IP address.
# 3. Controller name.
# 4. Item number.
# 5. Element number.
# 6. Type.
# 7. Group.
# 8. Field name.
# 9. Field value.
1518723978,de7dee530905d01fd036b91c05784b93,Form,0,0,id,NULL,ID,id55
1518723978,de7dee530905d01fd036b91c05784b93,Form,0,0,id,NULL,_REACTION_TIME_,5269
# Columns below this comment are as follows:
# 1. Time results were received.
# 2. MD5 hash of participant's IP address.
# 3. Controller name.
# 4. Item number.
# 5. Element number.
# 6. Type.
# 7. Group.
# 8. Question.
# 9. Answer.
# 10. Time.
1518723978,de7dee530905d01fd036b91c05784b93,DynamicQuestion,2,0,practice,NULL,practice1,6,29634
1518723978,de7dee530905d01fd036b91c05784b93,DynamicQuestion,3,0,practice,NULL,practice2,0,23489
1518723978,de7dee530905d01fd036b91c05784b93,DynamicQuestion,74,0,test,6,6+5+P+ExplicitIgnoranceP+happy+If Samantha is happy that Anthony designs clothes then she will ask him to work for her+Anthony designs clothes,1,14224
1518723978,de7dee530905d01fd036b91c05784b93,DynamicQuestion,336,0,test,2,28+5+Unacceptable+SupportP+-+If Nicholas doesn't eat meat then Sarah will share her lunch with him+Nicholas doesn't eat meat,1,14564
1518723978,de7dee530905d01fd036b91c05784b93,DynamicQuestion,454,0,test,3,38+5+Unacceptable+SupportP+-+If Jonathan doesn't dance then Melissa will not invite him to perform at her show+Jonathan doesn't dance,1,9950
1518723978,de7dee530905d01fd036b91c05784b93,DynamicQuestion,245,0,test,2,21+5+P+ExplicitIgnoranceP+continue+If Sophia continues going out to eat then William will get her a Wine and Dine magazine subscription+Sophia has been going out to eat,1,13280
1518723978,de7dee530905d01fd036b91c05784b93,DynamicQuestion,375,0,test,3,31+5+Acceptable+ExplicitIgnoranceP+-+If Grace hasn't been hosting parties then David will go live somewhere else+Grace hasn't been hosting parties,3,10131
1518723978,de7dee530905d01fd036b91c05784b93,DynamicQuestion,611,0,test,5,51+5+Unacceptable+ExplicitIgnoranceP+aware+Adam is aware that she was offered a job in Paris and he thinks that it would be a great career step for her.+Christine was offered a job in France,6,15312
1518723978,de7dee530905d01fd036b91c05784b93,DynamicQuestion,205,0,test,1,17+5+TrF+ExplicitIgnoranceP+stop+If Hannah has stopped skipping classes and she used to skip French then Daniel will not report her to the principal+Hannah used to skip classes,2,15474
1518723978,de7dee530905d01fd036b91c05784b93,DynamicQuestion,310,0,test,2,26+5+Unacceptable+SupportP+-+If Andrew doesn't play a sport then Isabella will invite him to train with her+Andrew doesn't play a sport,6,10018
1518723978,de7dee530905d01fd036b91c05784b93,DynamicQuestion,388,0,test,3,32+5+Unacceptable+SupportP+-+If Alyssa hasn't worked in academia then Tyler will nominate somebody else for the research committee+Alyssa hasn't worked in academia,2,9038
1518723978,de7dee530905d01fd036b91c05784b93,DynamicQuestion,153,0,test,1,13+5+TrL+ExplicitIgnoranceP+stop+If Emily used to play with toy cars and she has stopped playing with toys then Jacob will buy her racing video games for her birthday+Emily used to play with toys,0,14201
1518723978,de7dee530905d01fd036b91c05784b93,DynamicQuestion,415,0,test,3,35+5+Acceptable+ExplicitIgnoranceP+-+If Shirley doesn't play basketball then Juan will not ask her to teach basketball to disadvantaged kids in the summer+Shirley doesn't play basketball,6,11546
1518723978,de7dee530905d01fd036b91c05784b93,DynamicQuestion,362,0,test,3,30+5+Unacceptable+SupportP+-+If Olivia never went to the gym then Ethan will ask her to train with him+Olivia never went to the gym,6,12717
1518723978,de7dee530905d01fd036b91c05784b93,DynamicQuestion,101,0,test,9,9+5+P+ExplicitIgnoranceP+aware+If Sophia is aware that William likes musical instruments then she will ask him to visit the musem of musical instruments with her+William likes musical instruments,3,13303
1518723978,de7dee530905d01fd036b91c05784b93,DynamicQuestion,192,0,test,1,16+5+TrL+ExplicitIgnoranceP+stop+If Isabella used to drink a lot of coffee and she has stopped drinking coffee then Andrew will suggest that she order tea+Isabella used to drink coffee,6,14790
1518723978,de7dee530905d01fd036b91c05784b93,DynamicQuestion,166,0,test,1,14+5+TrF+ExplicitIgnoranceP+stop+If Emma has stopped reading novels and she used to enjoy sci-fi novels then Michael will take her to a sci-fi movie+Emma used to read novels,2,13459
1518723978,de7dee530905d01fd036b91c05784b93,DynamicQuestion,48,0,test,4,4+5+TrL+ExplicitIgnoranceP+happy+If Matthew travelled to Berlin and Abigail is happy that he travelled to Germany then she will ask him to write a post on her blog+Matthew travelled to Germany,3,14662
1518723978,de7dee530905d01fd036b91c05784b93,DynamicQuestion,467,0,test,3,39+5+Acceptable+ExplicitIgnoranceP+-+If Justin doesn't collect coins then Brenda will not bring him coins from her trip to Asia+Justin doesn't collect coins,6,10196
1518723978,de7dee530905d01fd036b91c05784b93,DynamicQuestion,637,0,test,5,53+5+Unacceptable+ExplicitIgnoranceP+stop+She has stopped eating bread so she's been trying out different alternatives.+Janet is allergic to gluten,6,9466
1518723978,de7dee530905d01fd036b91c05784b93,DynamicQuestion,35,0,test,3,3+5+P+ExplicitIgnoranceP+happy+If Madison is happy that Joshua plays an instrument then she will invite him to the party+Joshua plays an instrument,2,17398
1518723978,de7dee530905d01fd036b91c05784b93,DynamicQuestion,258,0,test,2,22+5+TrL+ExplicitIgnoranceP+continue+If Elizabeth has been eating red meat and she continues eating meat then Alexander will not want to go out to eat with her+Elizabeth has been eating meat,1,10299
1518723978,de7dee530905d01fd036b91c05784b93,DynamicQuestion,218,0,test,1,18+5+P+ExplicitIgnoranceP+stop+If Samantha has stopped travelling to Italy then Anthony will offer to take her on his next trip to Spain+Samantha used to travel to Italy,1,12596
1518723978,de7dee530905d01fd036b91c05784b93,DynamicQuestion,572,0,test,4,48+5+Acceptable+SupportP+continue+Benjamin still works for United so Amanda will interview him for her school newspaper+Amanda will interview Benjamin for her school newspaper,6,6756
1518723978,de7dee530905d01fd036b91c05784b93,DynamicQuestion,140,0,test,1,12+5+P+ExplicitIgnoranceP+aware+If Alyssa is aware that Tyler likes animals then she will ask him if he knows anyone that could walk her dog +Tyler likes animals,6,10446
1518723978,de7dee530905d01fd036b91c05784b93,DynamicQuestion,100,0,test,8,8+5+TrF+ExplicitIgnoranceP+aware+If Ashley is aware that Joseph likes music and he likes classical music then she will give him a biography of Beethoven+Joseph likes music,6,16443
1518723978,de7dee530905d01fd036b91c05784b93,DynamicQuestion,663,0,test,5,55+5+Unacceptable+ExplicitIgnoranceP+continue+She continues to enjoy playing hockey and might even try out for the varsity team next year.+Frances likes football,1,14788
1518723978,de7dee530905d01fd036b91c05784b93,DynamicQuestion,284,0,test,2,24+5+P+ExplicitIgnoranceP+continue+If Sarah continues adopting pets then Nicholas will suggest she move out+Sarah has been adopting pets,4,12987
1518723978,de7dee530905d01fd036b91c05784b93,DynamicQuestion,598,0,test,5,50+5+Acceptable+SupportP+happy+Brandon is happy that Carolyn has friends in Amsterdam and is planning to pay them a visit when he is there next month.+Carolyn has contacts in Holland,6,7949
1518723978,de7dee530905d01fd036b91c05784b93,DynamicQuestion,585,0,test,4,49+5+Unacceptable+ExplicitIgnoranceP+happy+Bruce is happy that Stephanie is fluent in Mandarin and he will ask her to help him host Chinese visitors.+Stephanie is fluent in Mandarin Chinese,6,9727
1518723978,de7dee530905d01fd036b91c05784b93,DynamicQuestion,231,0,test,1,19+5+TrL+ExplicitIgnoranceP+continue+If Ava has been frequenting science museums and she continues visiting museums then Christopher will have a lot to talk to her about+Ava has been visiting museums,3,13224
1518723978,de7dee530905d01fd036b91c05784b93,DynamicQuestion,441,0,test,3,37+5+Acceptable+ExplicitIgnoranceP+-+If Albert doesn't export alcohol to the Middle East then Angela will not ask him to sell the wine from her vineyard+Albert doesn't export alcohol to the Middle East,0,13900
1518723978,de7dee530905d01fd036b91c05784b93,DynamicQuestion,402,0,test,3,34+5+Unacceptable+SupportP+-+If Joseph doesn't smoke then Jessica will refrain from smoking when he is around+Joseph doesn't smoke,0,15622
1518723978,de7dee530905d01fd036b91c05784b93,DynamicQuestion,87,0,test,7,7+5+TrL+ExplicitIgnoranceP+aware+If Christopher smokes Marlboros and Ava is aware that he smokes cigarettes then she will tell him about the recent class action suit+Christopher smokes cigarettes,0,15802
1518723978,de7dee530905d01fd036b91c05784b93,DynamicQuestion,532,0,test,4,44+5+Acceptable+SupportP+aware+Willie is aware that Kathleen works as a journalist and he will offer her a job in his newspaper+Willie will offer Kathleen a job in his newspaper,6,8150
1518723978,de7dee530905d01fd036b91c05784b93,DynamicQuestion,519,0,test,4,43+5+Unacceptable+ExplicitIgnoranceP+aware+Samuel is aware that Virginia has studied law and he will ask her for help with his case+Samuel will ask Virginia for help with his case,6,12100
1518723978,de7dee530905d01fd036b91c05784b93,DynamicQuestion,349,0,test,2,29+5+Acceptable+ExplicitIgnoranceP+-+If Madison never drank then Joshua will invite her to his group+Madison never drank,2,9667
1518723978,de7dee530905d01fd036b91c05784b93,DynamicQuestion,389,0,test,3,33+5+Acceptable+ExplicitIgnoranceP+-+If Roger never has worked in the military then Deborah will ask somebody else to give a talk at her group +Roger never has worked in the military,3,10615
1518723978,de7dee530905d01fd036b91c05784b93,DynamicQuestion,179,0,test,1,15+5+P+ExplicitIgnoranceP+stop+If Abigail has stopped doing yoga then Matthew will interview her for his story+Abigail used to do  yoga,0,9332
1518723978,de7dee530905d01fd036b91c05784b93,DynamicQuestion,559,0,test,4,47+5+Unacceptable+ExplicitIgnoranceP+continue+Roy still works in Buenos Aires so Debra will try to meet him on her next trip there+Debra will try to meet Roy on her next trip there,1,16623
1518723978,de7dee530905d01fd036b91c05784b93,DynamicQuestion,480,0,test,4,40+5+Unacceptable+SupportP+-+If Terry doesn't work in a restaurant then Amy will not ask him to cook for her party +Terry doesn't work in a restaurant,1,20357
1518723978,de7dee530905d01fd036b91c05784b93,DynamicQuestion,61,0,test,5,5+5+TrF+ExplicitIgnoranceP+happy+If Hannah is happy that Daniel sells flowers and he sells roses then she will go check out his store+Daniel sells flowers,2,11966
1518723978,de7dee530905d01fd036b91c05784b93,DynamicQuestion,22,0,test,2,2+5+TrF+ExplicitIgnoranceP+happy+If Emma is happy that Michael lives in Japan and he lives in Tokyo then she will go visit him+Michael lives in Japan,4,10807
1518723978,de7dee530905d01fd036b91c05784b93,DynamicQuestion,244,0,test,2,20+5+TrF+ExplicitIgnoranceP+continue+If Ashley continues watching sports and she has been watching baseball then Joseph will invite her to watch next year’s World Series with him+Ashley has been watching sports,2,12202
1518723978,de7dee530905d01fd036b91c05784b93,DynamicQuestion,493,0,test,4,41+5+Unacceptable+ExplicitIgnoranceP+happy+Gerald is happy that Anna is pregnant and he will buy her a present+Gerald will buy Anna a present,5,8929
1518723978,de7dee530905d01fd036b91c05784b93,DynamicQuestion,546,0,test,4,46+5+Acceptable+SupportP+stop+Lawrence has stopped running in the morning so Martha will convince him to go to the gym with her in the evening+Martha will convince Lawrence to go to the gym with her in the evening,6,17027
1518723978,de7dee530905d01fd036b91c05784b93,DynamicQuestion,428,0,test,3,36+5+Unacceptable+SupportP+-+If Jack never visits Asia then Cynthia will invite him to travel somewhere else with her+Jack never visits Asia,1,21302
1518723978,de7dee530905d01fd036b91c05784b93,DynamicQuestion,114,0,test,1,10+5+TrL+ExplicitIgnoranceP+aware+If Ryan drives a Toyota and Alexis is aware that he drives then she will get a ride from him+Ryan drives,3,8186
1518723978,de7dee530905d01fd036b91c05784b93,DynamicQuestion,323,0,test,2,27+5+Acceptable+ExplicitIgnoranceP+-+If Alexander doesn't drink soda then Elizabeth will buy some beer at the grocery store+Alexander doesn't drink soda,2,4979
1518723978,de7dee530905d01fd036b91c05784b93,DynamicQuestion,624,0,test,5,52+5+Acceptable+SupportP+aware+Harry is aware that she has a German passport and he thinks that she should go to college there.+Marie is a German citizen,3,7060
1518723978,de7dee530905d01fd036b91c05784b93,DynamicQuestion,533,0,test,4,45+5+Unacceptable+ExplicitIgnoranceP+stop+Ralph has stopped working at night so Pamela will invite him out for dinner+Pamela will invite Ralph out for dinner,5,7778
1518723978,de7dee530905d01fd036b91c05784b93,DynamicQuestion,9,0,test,1,1+5+TrL+ExplicitIgnoranceP+happy+If Jacob is in Paris and Emily is happy that he is in France then she will call him soon+Jacob is in France,5,6520
1518723978,de7dee530905d01fd036b91c05784b93,DynamicQuestion,506,0,test,4,42+5+Acceptable+SupportP+happy+Keith is happy that Rebecca is staying in his apartment and he will not ask her to move+Keith will not ask Rebecca to move,2,4855
1518723978,de7dee530905d01fd036b91c05784b93,DynamicQuestion,676,0,test,5,56+5+Acceptable+SupportP+continue+She still doesn't have a cell phone so Bill can only call her when she's at home or in the office.+Ann does not have a mobile phone,6,6318
1518723978,de7dee530905d01fd036b91c05784b93,DynamicQuestion,127,0,test,1,11+5+TrF+ExplicitIgnoranceP+aware+If Grace is aware that David likes to eat out and he likes to eat at Mexican restaurants then she will take him for Mexican+David likes to eat out,3,7067
1518723978,de7dee530905d01fd036b91c05784b93,DynamicQuestion,650,0,test,5,54+5+Acceptable+SupportP+stop+Catherine has stopped serving on the facilities committee so she has a little bit more free time now.+Catherine is in Europe,6,7498
1518723978,de7dee530905d01fd036b91c05784b93,DynamicQuestion,271,0,test,2,23+5+TrF+ExplicitIgnoranceP+continue+If Alexis continues failing exams and she has been flunking end-of-the-year exams then Ryan will suggest that she work with the counselling center+Alexis has been failing exams,5,6575
1518723978,de7dee530905d01fd036b91c05784b93,DynamicQuestion,297,0,test,2,25+5+Acceptable+ExplicitIgnoranceP+-+If Ethan isn't coming to England then Olivia will invite somebody else for dinner +Ethan isn't coming to England,2,10480
#
# Results on Thursday February 15 2018 19:51:43 UTC.
# USER AGENT: Mozilla/5.0 (Macintosh; Intel Mac OS X 10.12; rv:52.0) Gecko/20100101 Firefox/52.0
# Design number was non-random = 5
#
# Columns below this comment are as follows:
# 1. Time results were received.
# 2. MD5 hash of participant's IP address.
# 3. Controller name.
# 4. Item number.
# 5. Element number.
# 6. Type.
# 7. Group.
# 8. Field name.
# 9. Field value.
1518724304,d384f3234731ac67e38ae36b2f6faceb,Form,0,0,id,NULL,ID,id66
1518724304,d384f3234731ac67e38ae36b2f6faceb,Form,0,0,id,NULL,_REACTION_TIME_,3809
# Columns below this comment are as follows:
# 1. Time results were received.
# 2. MD5 hash of participant's IP address.
# 3. Controller name.
# 4. Item number.
# 5. Element number.
# 6. Type.
# 7. Group.
# 8. Question.
# 9. Answer.
# 10. Time.
1518724304,d384f3234731ac67e38ae36b2f6faceb,DynamicQuestion,2,0,practice,NULL,practice1,5,36961
1518724304,d384f3234731ac67e38ae36b2f6faceb,DynamicQuestion,3,0,practice,NULL,practice2,0,19835
1518724304,d384f3234731ac67e38ae36b2f6faceb,DynamicQuestion,298,0,test,2,25+6+Acceptable+ExplicitIgnoranceP+-+If Ethan isn't coming to England then Olivia will invite somebody else for dinner +Ethan isn't coming to England,5,9264
1518724304,d384f3234731ac67e38ae36b2f6faceb,DynamicQuestion,246,0,test,2,21+6+TrF+ExplicitIgnoranceP+continue+If Sophia continues going out to eat and she has been eating at expensive restaurants then William will get her a Wine and Dine magazine subscription+Sophia has been going out to eat,0,10630
1518724304,d384f3234731ac67e38ae36b2f6faceb,DynamicQuestion,664,0,test,5,55+6+Unacceptable+ExplicitIgnoranceP+continue+She continues to enjoy playing hockey and might even try out for the varsity team next year.+Billy will bring Frances to the movies,0,10681
1518724304,d384f3234731ac67e38ae36b2f6faceb,DynamicQuestion,102,0,test,9,9+6+TrF+ExplicitIgnoranceP+aware+If Sophia is aware that William likes musical instruments and he likes violins then she will ask him to visit the musem of musical instruments with her+William likes musical instruments,0,11165
1518724304,d384f3234731ac67e38ae36b2f6faceb,DynamicQuestion,337,0,test,2,28+6+Unacceptable+SupportP+-+If Nicholas doesn't eat meat then Sarah will share her lunch with him+Nicholas doesn't eat meat,4,9578
1518724304,d384f3234731ac67e38ae36b2f6faceb,DynamicQuestion,481,0,test,4,40+6+Unacceptable+SupportP+-+If Terry doesn't work in a restaurant then Amy will not ask him to cook for her party +Terry doesn't work in a restaurant,0,7144
1518724304,d384f3234731ac67e38ae36b2f6faceb,DynamicQuestion,88,0,test,7,7+6+P+ExplicitIgnoranceP+aware+If Ava is aware that Christopher smokes cigarettes then she will tell him about the recent class action suit+Christopher smokes cigarettes,0,8363
1518724304,d384f3234731ac67e38ae36b2f6faceb,DynamicQuestion,141,0,test,1,12+6+TrF+ExplicitIgnoranceP+aware+If Alyssa is aware that Tyler likes animals and he likes dogs then she will ask him if he knows anyone that could walk her dog +Tyler likes animals,1,12321
1518724304,d384f3234731ac67e38ae36b2f6faceb,DynamicQuestion,49,0,test,4,4+6+P+ExplicitIgnoranceP+happy+If Abigail is happy that Matthew travelled to Germany then she will ask him to write a post on her blog+Matthew travelled to Germany,5,11861
1518724304,d384f3234731ac67e38ae36b2f6faceb,DynamicQuestion,586,0,test,4,49+6+Unacceptable+ExplicitIgnoranceP+happy+Bruce is happy that Stephanie is fluent in Mandarin and he will ask her to help him host Chinese visitors.+Bruce will be excited to learn that Stephanie is fluent in Mandarin Chinese,1,9332
1518724304,d384f3234731ac67e38ae36b2f6faceb,DynamicQuestion,193,0,test,1,16+6+P+ExplicitIgnoranceP+stop+If Isabella has stopped drinking coffee then Andrew will suggest that she order tea+Isabella used to drink coffee,0,6428
1518724304,d384f3234731ac67e38ae36b2f6faceb,DynamicQuestion,154,0,test,1,13+6+P+ExplicitIgnoranceP+stop+If Emily has stopped playing with toys then Jacob will buy her racing video games for her birthday+Emily used to play with toys,4,6352
1518724304,d384f3234731ac67e38ae36b2f6faceb,DynamicQuestion,89,0,test,8,8+6+TrL+ExplicitIgnoranceP+aware+If Joseph likes classical music and Ashley is aware that he likes music then she will give him a biography of Beethoven+Joseph likes music,4,9161
1518724304,d384f3234731ac67e38ae36b2f6faceb,DynamicQuestion,36,0,test,3,3+6+TrF+ExplicitIgnoranceP+happy+If Madison is happy that Joshua plays an instrument and he plays the piano then she will invite him to the party+Joshua plays an instrument,4,9574
1518724304,d384f3234731ac67e38ae36b2f6faceb,DynamicQuestion,521,0,test,4,44+6+Acceptable+SupportP+aware+Willie is aware that Kathleen works as a journalist and he will offer her a job in his newspaper+Willie will offer Kathleen a job in his newspaper,6,7621
1518724304,d384f3234731ac67e38ae36b2f6faceb,DynamicQuestion,167,0,test,1,14+6+TrL+ExplicitIgnoranceP+stop+If Emma used to enjoy sci-fi novels and she has stopped reading novels then Michael will take her to a sci-fi movie+Emma used to read novels,2,14901
1518724304,d384f3234731ac67e38ae36b2f6faceb,DynamicQuestion,612,0,test,5,51+6+Unacceptable+ExplicitIgnoranceP+aware+Adam is aware that she was offered a job in Paris and he thinks that it would be a great career step for her.+Adam will be excited to learn that Christine was offered a job in Paris,3,8881
1518724304,d384f3234731ac67e38ae36b2f6faceb,DynamicQuestion,232,0,test,1,19+6+P+ExplicitIgnoranceP+continue+If Ava continues visiting museums then Christopher will have a lot to talk to her about+Ava has been visiting museums,3,4786
1518724304,d384f3234731ac67e38ae36b2f6faceb,DynamicQuestion,651,0,test,5,54+6+Acceptable+SupportP+stop+Catherine has stopped serving on the facilities committee so she has a little bit more free time now.+Wayne will not ask Catherine to come for the next committee meeting,2,6227
1518724304,d384f3234731ac67e38ae36b2f6faceb,DynamicQuestion,115,0,test,1,10+6+P+ExplicitIgnoranceP+aware+If Alexis is aware that Ryan drives then she will get a ride from him+Ryan drives,1,5944
1518724304,d384f3234731ac67e38ae36b2f6faceb,DynamicQuestion,390,0,test,3,33+6+Acceptable+ExplicitIgnoranceP+-+If Roger never has worked in the military then Deborah will ask somebody else to give a talk at her group +Roger never has worked in the military,0,8802
1518724304,d384f3234731ac67e38ae36b2f6faceb,DynamicQuestion,403,0,test,3,34+6+Unacceptable+SupportP+-+If Joseph doesn't smoke then Jessica will refrain from smoking when he is around+Joseph doesn't smoke,5,11683
1518724304,d384f3234731ac67e38ae36b2f6faceb,DynamicQuestion,23,0,test,2,2+6+TrL+ExplicitIgnoranceP+happy+If Michael lives in Tokyo and Emma is happy that he lives in Japan then she will go visit him+Michael lives in Japan,4,8735
1518724304,d384f3234731ac67e38ae36b2f6faceb,DynamicQuestion,350,0,test,2,29+6+Acceptable+ExplicitIgnoranceP+-+If Madison never drank then Joshua will invite her to his group+Madison never drank,5,6900
1518724304,d384f3234731ac67e38ae36b2f6faceb,DynamicQuestion,180,0,test,1,15+6+TrF+ExplicitIgnoranceP+stop+If Abigail has stopped doing yoga and she used to practice Jivamukti yoga then Matthew will interview her for his story+Abigail used to do  yoga,2,9174
1518724304,d384f3234731ac67e38ae36b2f6faceb,DynamicQuestion,272,0,test,2,23+6+TrL+ExplicitIgnoranceP+continue+If Alexis has been flunking end-of-the-year exams and she continues failing exams then Ryan will suggest that she work with the counselling center+Alexis has been failing exams,0,7239
1518724304,d384f3234731ac67e38ae36b2f6faceb,DynamicQuestion,128,0,test,1,11+6+TrL+ExplicitIgnoranceP+aware+If David likes to eat at Mexican restaurants and Grace is aware that he likes to eat out then she will take him for Mexican+David likes to eat out,3,7657
1518724304,d384f3234731ac67e38ae36b2f6faceb,DynamicQuestion,285,0,test,2,24+6+TrF+ExplicitIgnoranceP+continue+If Sarah continues adopting pets and she has been adopting cats then Nicholas will suggest she move out+Sarah has been adopting pets,2,5248
1518724304,d384f3234731ac67e38ae36b2f6faceb,DynamicQuestion,233,0,test,2,20+6+TrL+ExplicitIgnoranceP+continue+If Ashley has been watching baseball and she continues watching sports then Joseph will invite her to watch next year’s World Series with him+Ashley has been watching sports,4,7406
1518724304,d384f3234731ac67e38ae36b2f6faceb,DynamicQuestion,573,0,test,4,48+6+Acceptable+SupportP+continue+Benjamin still works for United so Amanda will interview him for her school newspaper+Amanda will interview Benjamin for her school newspaper,0,10726
1518724304,d384f3234731ac67e38ae36b2f6faceb,DynamicQuestion,520,0,test,4,43+6+Unacceptable+ExplicitIgnoranceP+aware+Samuel is aware that Virginia has studied law and he will ask her for help with his case+Samuel will ask Virginia for help with his case,4,8365
1518724304,d384f3234731ac67e38ae36b2f6faceb,DynamicQuestion,547,0,test,4,46+6+Acceptable+SupportP+stop+Lawrence has stopped running in the morning so Martha will convince him to go to the gym with her in the evening+Martha will convince Lawrence to go to the gym with her in the evening,6,11750
1518724304,d384f3234731ac67e38ae36b2f6faceb,DynamicQuestion,507,0,test,4,42+6+Acceptable+SupportP+happy+Keith is happy that Rebecca is staying in his apartment and he will not ask her to move+Keith will not ask Rebecca to move,6,13583
1518724304,d384f3234731ac67e38ae36b2f6faceb,DynamicQuestion,599,0,test,5,50+6+Acceptable+SupportP+happy+Brandon is happy that Carolyn has friends in Amsterdam and is planning to pay them a visit when he is there next month.+Brandon will be excited to learn that Carolyn has friends in Amsterdam,6,10220
1518724304,d384f3234731ac67e38ae36b2f6faceb,DynamicQuestion,259,0,test,2,22+6+P+ExplicitIgnoranceP+continue+If Elizabeth continues eating meat then Alexander will not want to go out to eat with her+Elizabeth has been eating meat,1,9039
1518724304,d384f3234731ac67e38ae36b2f6faceb,DynamicQuestion,534,0,test,4,45+6+Unacceptable+ExplicitIgnoranceP+stop+Ralph has stopped working at night so Pamela will invite him out for dinner+Pamela will invite Ralph out for dinner,4,7746
1518724304,d384f3234731ac67e38ae36b2f6faceb,DynamicQuestion,377,0,test,3,32+6+Unacceptable+SupportP+-+If Alyssa hasn't worked in academia then Tyler will nominate somebody else for the research committee+Alyssa hasn't worked in academia,4,5631
1518724304,d384f3234731ac67e38ae36b2f6faceb,DynamicQuestion,494,0,test,4,41+6+Unacceptable+ExplicitIgnoranceP+happy+Gerald is happy that Anna is pregnant and he will buy her a present+Gerald will buy Anna a present,0,4146
1518724304,d384f3234731ac67e38ae36b2f6faceb,DynamicQuestion,363,0,test,3,30+6+Unacceptable+SupportP+-+If Olivia never went to the gym then Ethan will ask her to train with him+Olivia never went to the gym,5,5483
1518724304,d384f3234731ac67e38ae36b2f6faceb,DynamicQuestion,625,0,test,5,52+6+Acceptable+SupportP+aware+Harry is aware that she has a German passport and he thinks that she should go to college there.+Harry will be excited to learn that Marie is a German citizen,5,6373
1518724304,d384f3234731ac67e38ae36b2f6faceb,DynamicQuestion,311,0,test,2,26+6+Unacceptable+SupportP+-+If Andrew doesn't play a sport then Isabella will invite him to train with her+Andrew doesn't play a sport,0,8037
1518724304,d384f3234731ac67e38ae36b2f6faceb,DynamicQuestion,468,0,test,3,39+6+Acceptable+ExplicitIgnoranceP+-+If Justin doesn't collect coins then Brenda will not bring him coins from her trip to Asia+Justin doesn't collect coins,5,5955
1518724304,d384f3234731ac67e38ae36b2f6faceb,DynamicQuestion,206,0,test,1,17+6+TrL+ExplicitIgnoranceP+stop+If Hannah used to skip French and she has stopped skipping classes then Daniel will not report her to the principal+Hannah used to skip classes,2,13427
1518724304,d384f3234731ac67e38ae36b2f6faceb,DynamicQuestion,10,0,test,1,1+6+P+ExplicitIgnoranceP+happy+If Emily is happy that Jacob is in France then she will call him soon+Jacob is in France,4,5675
1518724304,d384f3234731ac67e38ae36b2f6faceb,DynamicQuestion,376,0,test,3,31+6+Acceptable+ExplicitIgnoranceP+-+If Grace hasn't been hosting parties then David will go live somewhere else+Grace hasn't been hosting parties,4,6047
1518724304,d384f3234731ac67e38ae36b2f6faceb,DynamicQuestion,455,0,test,3,38+6+Unacceptable+SupportP+-+If Jonathan doesn't dance then Melissa will not invite him to perform at her show+Jonathan doesn't dance,5,3696
1518724304,d384f3234731ac67e38ae36b2f6faceb,DynamicQuestion,75,0,test,6,6+6+TrF+ExplicitIgnoranceP+happy+If Samantha is happy that Anthony designs clothes and he designs shirts then she will ask him to work for her+Anthony designs clothes,3,4498
1518724304,d384f3234731ac67e38ae36b2f6faceb,DynamicQuestion,324,0,test,2,27+6+Acceptable+ExplicitIgnoranceP+-+If Alexander doesn't drink soda then Elizabeth will buy some beer at the grocery store+Alexander doesn't drink soda,5,6732
1518724304,d384f3234731ac67e38ae36b2f6faceb,DynamicQuestion,560,0,test,4,47+6+Unacceptable+ExplicitIgnoranceP+continue+Roy still works in Buenos Aires so Debra will try to meet him on her next trip there+Debra will try to meet Roy on her next trip there,0,11075
1518724304,d384f3234731ac67e38ae36b2f6faceb,DynamicQuestion,638,0,test,5,53+6+Unacceptable+ExplicitIgnoranceP+stop+She has stopped eating bread so she's been trying out different alternatives.+Fred will not order out from his favourite Italian restaurant,2,7914
1518724304,d384f3234731ac67e38ae36b2f6faceb,DynamicQuestion,429,0,test,3,36+6+Unacceptable+SupportP+-+If Jack never visits Asia then Cynthia will invite him to travel somewhere else with her+Jack never visits Asia,4,11931
1518724304,d384f3234731ac67e38ae36b2f6faceb,DynamicQuestion,665,0,test,5,56+6+Acceptable+SupportP+continue+She still doesn't have a cell phone so Bill can only call her when she's at home or in the office.+Steve will send Ann an email to her home address,4,5811
1518724304,d384f3234731ac67e38ae36b2f6faceb,DynamicQuestion,62,0,test,5,5+6+TrL+ExplicitIgnoranceP+happy+If Daniel sells roses and Hannah is happy that he sells flowers then she will go check out his store+Daniel sells flowers,3,5316
1518724304,d384f3234731ac67e38ae36b2f6faceb,DynamicQuestion,416,0,test,3,35+6+Acceptable+ExplicitIgnoranceP+-+If Shirley doesn't play basketball then Juan will not ask her to teach basketball to disadvantaged kids in the summer+Shirley doesn't play basketball,4,6373
1518724304,d384f3234731ac67e38ae36b2f6faceb,DynamicQuestion,219,0,test,1,18+6+TrF+ExplicitIgnoranceP+stop+If Samantha has stopped travelling to Italy and she used to go to Rome then Anthony will offer to take her on his next trip to Spain+Samantha used to travel to Italy,4,6126
1518724304,d384f3234731ac67e38ae36b2f6faceb,DynamicQuestion,442,0,test,3,37+6+Acceptable+ExplicitIgnoranceP+-+If Albert doesn't export alcohol to the Middle East then Angela will not ask him to sell the wine from her vineyard+Albert doesn't export alcohol to the Middle East,2,5956
#
# Results on Thursday February 15 2018 20:17:20 UTC.
# USER AGENT: Mozilla/5.0 (Macintosh; Intel Mac OS X 10.11; rv:52.0) Gecko/20100101 Firefox/52.0
# Design number was non-random = 6
#
# Columns below this comment are as follows:
# 1. Time results were received.
# 2. MD5 hash of participant's IP address.
# 3. Controller name.
# 4. Item number.
# 5. Element number.
# 6. Type.
# 7. Group.
# 8. Field name.
# 9. Field value.
1518725840,de7dee530905d01fd036b91c05784b93,Form,0,0,id,NULL,ID,id77
1518725840,de7dee530905d01fd036b91c05784b93,Form,0,0,id,NULL,_REACTION_TIME_,14134
# Columns below this comment are as follows:
# 1. Time results were received.
# 2. MD5 hash of participant's IP address.
# 3. Controller name.
# 4. Item number.
# 5. Element number.
# 6. Type.
# 7. Group.
# 8. Question.
# 9. Answer.
# 10. Time.
1518725840,de7dee530905d01fd036b91c05784b93,DynamicQuestion,2,0,practice,NULL,practice1,6,35287
1518725840,de7dee530905d01fd036b91c05784b93,DynamicQuestion,3,0,practice,NULL,practice2,0,28318
1518725840,de7dee530905d01fd036b91c05784b93,DynamicQuestion,220,0,test,1,18+7+TrL+SupportP+frown on+If Samantha used to go to Rome and she now frowns on travelling to Italy then Anthony will offer to take her on his next trip to Spain+Samantha travelled to Italy,5,26379
1518725840,de7dee530905d01fd036b91c05784b93,DynamicQuestion,509,0,test,4,43+7+Acceptable+SupportP+aware+Samuel is aware that Virginia has studied law and he will ask her for help with his case+Samuel will ask Virginia for help with his case,6,9915
1518725840,de7dee530905d01fd036b91c05784b93,DynamicQuestion,273,0,test,2,23+7+P+SupportP+enjoy+If Alexis enjoys failing exams then Ryan will suggest that she work with the counselling center+Alexis has been failing exams,0,10096
1518725840,de7dee530905d01fd036b91c05784b93,DynamicQuestion,168,0,test,1,14+7+P+SupportP+frown on+If Emma now frowns on reading novels then Michael will take her to a sci-fi movie+Emma reads novels,3,14902
1518725840,de7dee530905d01fd036b91c05784b93,DynamicQuestion,142,0,test,1,12+7+TrL+SupportP+sure+If Tyler likes dogs and Alyssa is sure that he likes animals then she will ask him if he knows anyone that could walk her dog +Tyler likes animals,5,14731
1518725840,de7dee530905d01fd036b91c05784b93,DynamicQuestion,155,0,test,1,13+7+TrF+SupportP+frown on+If Emily now frowns on playing with toys and she used to play with toy cars then Jacob will buy her racing video games for her birthday+Emily plays with toys,1,16193
1518725840,de7dee530905d01fd036b91c05784b93,DynamicQuestion,561,0,test,4,47+7+Acceptable+SupportP+continue+Roy still works in Buenos Aires so Debra will try to meet him on her next trip there+Debra will try to meet Roy on her next trip there,6,11999
1518725840,de7dee530905d01fd036b91c05784b93,DynamicQuestion,247,0,test,2,21+7+TrL+SupportP+enjoy+If Sophia has been eating at expensive restaurants and she enjoys going out to eat then William will get her a Wine and Dine magazine subscription+Sophia has been going out to eat,5,10601
1518725840,de7dee530905d01fd036b91c05784b93,DynamicQuestion,653,0,test,5,55+7+Acceptable+SupportP+continue+She continues to enjoy playing hockey and might even try out for the varsity team next year.+Frances likes football,6,11627
1518725840,de7dee530905d01fd036b91c05784b93,DynamicQuestion,508,0,test,4,42+7+Unacceptable+ExplicitIgnoranceP+happy+Keith is happy that Rebecca is staying in his apartment and he will not ask her to move+Keith will not ask Rebecca to move,6,14764
1518725840,de7dee530905d01fd036b91c05784b93,DynamicQuestion,24,0,test,2,2+7+P+SupportP+hoping+If Emma was hoping that Michael lives in Japan then she will go visit him+Michael lives in Japan,0,9985
1518725840,de7dee530905d01fd036b91c05784b93,DynamicQuestion,351,0,test,2,29+7+Unacceptable+SupportP+-+If Madison never drank then Joshua will invite her to his group+Madison never drank,1,8826
1518725840,de7dee530905d01fd036b91c05784b93,DynamicQuestion,482,0,test,4,40+7+Acceptable+ExplicitIgnoranceP+-+If Terry doesn't work in a restaurant then Amy will not ask him to cook for her party +Terry doesn't work in a restaurant,1,12449
1518725840,de7dee530905d01fd036b91c05784b93,DynamicQuestion,404,0,test,3,34+7+Acceptable+ExplicitIgnoranceP+-+If Joseph doesn't smoke then Jessica will refrain from smoking when he is around+Joseph doesn't smoke,5,9613
1518725840,de7dee530905d01fd036b91c05784b93,DynamicQuestion,600,0,test,5,50+7+Unacceptable+ExplicitIgnoranceP+happy+Brandon is happy that Carolyn has friends in Amsterdam and is planning to pay them a visit when he is there next month.+Carolyn has friends in Amsterdam,0,10139
1518725840,de7dee530905d01fd036b91c05784b93,DynamicQuestion,587,0,test,4,49+7+Acceptable+SupportP+happy+Bruce is happy that Stephanie is fluent in Mandarin and he will ask her to help him host Chinese visitors.+Stephanie speask an Asian language,6,10896
1518725840,de7dee530905d01fd036b91c05784b93,DynamicQuestion,129,0,test,1,11+7+P+SupportP+sure+If Grace is sure that David likes to eat out then she will take him for Mexican+David likes to eat out,5,10267
1518725840,de7dee530905d01fd036b91c05784b93,DynamicQuestion,535,0,test,4,45+7+Acceptable+SupportP+stop+Ralph has stopped working at night so Pamela will invite him out for dinner+Pamela will invite Ralph out for dinner,4,21741
1518725840,de7dee530905d01fd036b91c05784b93,DynamicQuestion,365,0,test,3,31+7+Unacceptable+SupportP+-+If Grace hasn't been hosting parties then David will go live somewhere else+Grace hasn't been hosting parties,1,9199
1518725840,de7dee530905d01fd036b91c05784b93,DynamicQuestion,378,0,test,3,32+7+Acceptable+ExplicitIgnoranceP+-+If Alyssa hasn't worked in academia then Tyler will nominate somebody else for the research committee+Alyssa hasn't worked in academia,6,8151
1518725840,de7dee530905d01fd036b91c05784b93,DynamicQuestion,207,0,test,1,17+7+P+SupportP+frown on+If Hannah now frowns on skipping classes then Daniel will not report her to the principal+Hannah skips classes,6,10458
1518725840,de7dee530905d01fd036b91c05784b93,DynamicQuestion,76,0,test,6,6+7+TrL+SupportP+hoping+If Anthony designs shirts and Samantha was hoping that he designs clothes then she will ask him to work for her+Anthony designs clothes,6,20404
1518725840,de7dee530905d01fd036b91c05784b93,DynamicQuestion,299,0,test,2,25+7+Unacceptable+SupportP+-+If Ethan isn't coming to England then Olivia will invite somebody else for dinner +Ethan isn't coming to England,0,7262
1518725840,de7dee530905d01fd036b91c05784b93,DynamicQuestion,221,0,test,1,19+7+TrF+SupportP+enjoy+If Ava enjoys visiting museums and she has been frequenting science museums then Christopher will have a lot to talk to her about+Ava has been visiting museums,4,11898
1518725840,de7dee530905d01fd036b91c05784b93,DynamicQuestion,194,0,test,1,16+7+TrF+SupportP+frown on+If Isabella now frowns on drinking coffee and she used to drink a lot of coffee then Andrew will suggest that she order tea+Isabella drinks coffee,5,9491
1518725840,de7dee530905d01fd036b91c05784b93,DynamicQuestion,234,0,test,2,20+7+P+SupportP+enjoy+If Ashley enjoys watching sports then Joseph will invite her to watch next year’s World Series with him+Ashley has been watching sports,6,13169
1518725840,de7dee530905d01fd036b91c05784b93,DynamicQuestion,639,0,test,5,53+7+Acceptable+SupportP+stop+She has stopped eating bread so she's been trying out different alternatives.+Janet likes cheese,6,7331
1518725840,de7dee530905d01fd036b91c05784b93,DynamicQuestion,391,0,test,3,33+7+Unacceptable+SupportP+-+If Roger never has worked in the military then Deborah will ask somebody else to give a talk at her group +Roger never has worked in the military,0,10784
1518725840,de7dee530905d01fd036b91c05784b93,DynamicQuestion,495,0,test,4,41+7+Acceptable+SupportP+happy+Gerald is happy that Anna is pregnant and he will buy her a present+Gerald will buy Anna a present,6,9006
1518725840,de7dee530905d01fd036b91c05784b93,DynamicQuestion,364,0,test,3,30+7+Acceptable+ExplicitIgnoranceP+-+If Olivia never went to the gym then Ethan will ask her to train with him+Olivia never went to the gym,6,7936
1518725840,de7dee530905d01fd036b91c05784b93,DynamicQuestion,103,0,test,9,9+7+TrL+SupportP+sure+If William likes violins and Sophia is sure that he likes musical instruments then she will ask him to visit the musem of musical instruments with her+William likes musical instruments,6,19357
1518725840,de7dee530905d01fd036b91c05784b93,DynamicQuestion,548,0,test,4,46+7+Unacceptable+ExplicitIgnoranceP+stop+Lawrence has stopped running in the morning so Martha will convince him to go to the gym with her in the evening+Martha will convince Lawrence to go to the gym with her in the evening,0,11336
1518725840,de7dee530905d01fd036b91c05784b93,DynamicQuestion,666,0,test,5,56+7+Unacceptable+ExplicitIgnoranceP+continue+She still doesn't have a cell phone so Bill can only call her when she's at home or in the office.+Ann does not have a mobile phone,0,13462
1518725840,de7dee530905d01fd036b91c05784b93,DynamicQuestion,652,0,test,5,54+7+Unacceptable+ExplicitIgnoranceP+stop+Catherine has stopped serving on the facilities committee so she has a little bit more free time now.+Catherine is not crucial for the current project,0,9334
1518725840,de7dee530905d01fd036b91c05784b93,DynamicQuestion,181,0,test,1,15+7+TrL+SupportP+frown on+If Abigail used to practice Jivamukti yoga and she now frowns on doing yoga then Matthew will interview her for his story+Abigail does yoga,2,9704
1518725840,de7dee530905d01fd036b91c05784b93,DynamicQuestion,338,0,test,2,28+7+Acceptable+ExplicitIgnoranceP+-+If Nicholas doesn't eat meat then Sarah will share her lunch with him+Nicholas doesn't eat meat,6,7634
1518725840,de7dee530905d01fd036b91c05784b93,DynamicQuestion,11,0,test,1,1+7+TrF+SupportP+hoping+If Emily was hoping that Jacob is in France and he is in Paris then she will call him soon+Jacob is in France,4,12572
1518725840,de7dee530905d01fd036b91c05784b93,DynamicQuestion,469,0,test,3,39+7+Unacceptable+SupportP+-+If Justin doesn't collect coins then Brenda will not bring him coins from her trip to Asia+Justin doesn't collect coins,1,10919
1518725840,de7dee530905d01fd036b91c05784b93,DynamicQuestion,63,0,test,5,5+7+P+SupportP+hoping+If Hannah was hoping that Daniel sells flowers then she will go check out his store+Daniel sells flowers,6,13461
1518725840,de7dee530905d01fd036b91c05784b93,DynamicQuestion,325,0,test,2,27+7+Unacceptable+SupportP+-+If Alexander doesn't drink soda then Elizabeth will buy some beer at the grocery store+Alexander doesn't drink soda,1,11055
1518725840,de7dee530905d01fd036b91c05784b93,DynamicQuestion,626,0,test,5,52+7+Unacceptable+ExplicitIgnoranceP+aware+Harry is aware that she has a German passport and he thinks that she should go to college there.+Marie is a German citizen,0,19144
1518725840,de7dee530905d01fd036b91c05784b93,DynamicQuestion,312,0,test,2,26+7+Acceptable+ExplicitIgnoranceP+-+If Andrew doesn't play a sport then Isabella will invite him to train with her+Andrew doesn't play a sport,6,8128
1518725840,de7dee530905d01fd036b91c05784b93,DynamicQuestion,286,0,test,2,24+7+TrL+SupportP+enjoy+If Sarah has been adopting cats and she enjoys adopting pets then Nicholas will suggest she move out+Sarah has been adopting pets,5,20380
